Folder: NRC_SU25_Spectral_Classification/Jesse_Dataset_v2/Pure Raman/Polypropylene oxide/633nm (part 2)

File: ps-ppo-7jan25-0,0000-map2_Y02_X04.txt
182.393	730
192.79	604
203.174	516
213.542	468
223.897	628
234.238	1264
244.566	876
254.878	472
265.178	314
275.463	288
285.734	372
295.992	628
306.236	468
316.467	380
326.684	368
336.887	406
347.075	344
357.251	368
367.413	326
377.562	320
387.697	258
397.819	230
407.926	280
418.02	344
428.101	230
438.169	198
448.223	186
458.264	174
468.291	250
478.306	402
488.307	448
498.294	244
508.269	268
518.23	310
528.177	418
538.113	760
548.034	442
557.942	524
567.838	2690
577.72	1530
587.589	588
597.446	448
607.289	244
617.119	210
626.936	274
636.741	316
646.533	252
656.313	198
666.078	174
675.831	160
685.571	170
695.299	176
705.014	172
714.716	246
724.406	190
734.082	204
743.746	310
753.398	288
763.037	216
772.664	192
782.278	222
791.879	214
801.467	182
811.044	206
820.608	242
830.16	848
839.699	414
849.226	244
858.741	232
868.243	186
877.731	198
887.209	186
896.674	178
906.128	184
915.569	190
924.997	188
934.414	204
943.818	268
953.211	534
962.59	918
971.958	462
981.314	238
990.659	222
999.99	200
1009.31	204
1018.62	242
1027.91	260
1037.2	282
1046.47	240
1055.73	192
1064.98	220
1074.22	208
1083.44	210
1092.65	220
1101.86	234
1111.05	854
1120.22	386
1129.39	242
1138.54	254
1147.69	242
1156.82	248
1165.94	268
1175.05	278
1184.14	584
1193.23	466
1202.3	456
1211.36	292
1220.41	238
1229.45	362
1238.48	278
1247.5	220
1256.5	242
1265.49	250
1274.48	258
1283.45	358
1292.41	480
1301.36	1574
1310.29	1370
1319.22	566
1328.13	476
1337.04	350
1345.93	378
1354.81	364
1363.68	312
1372.54	526
1381.38	1054
1390.22	382
1399.05	276
1407.86	284
1416.66	330
1425.46	418
1434.24	458
1443.01	514
1451.77	404
1460.52	394
1469.25	368
1477.98	356
1486.7	348
1495.4	272
1504.1	276
1512.78	274
1521.45	268
1530.11	290
1538.76	272
1547.41	300
1556.03	294
1564.65	304
1573.26	336
1581.86	460
1590.45	776
1599.02	1420
1607.59	1276
1616.14	776
1624.69	396
1633.22	304
1641.75	270
1650.26	242
1658.76	238
1667.26	236
1675.74	224
1684.21	234
1692.67	260
1701.12	242
1709.56	240
1717.99	238
1726.41	222
1734.82	210
1743.22	230
1751.61	216
1759.99	208
1768.36	216
1776.71	204
1785.06	222
1793.4	224
1801.73	232
1810.04	230
1818.35	224
1826.65	208
1834.94	218
1843.21	226
1851.48	206
1859.74	198
1867.98	224
1876.22	218
1884.45	198
1892.67	222
1900.87	216
1909.07	208
1917.26	220
1925.43	220
1933.6	222
1941.76	212
1949.91	208
1958.05	224
1966.17	210
1974.29	212
1982.4	224
1990.5	210
1998.59	206
2006.67	218
2014.74	202
2022.8	214
2030.85	216
2038.89	238
2046.92	218
2054.94	220
2062.95	212
2070.96	218
2078.95	204
2086.93	226
2094.91	210
2102.87	226
2110.83	216
2118.77	210
2126.71	198
2134.63	236
2142.55	216
2150.46	210
2158.35	216
2166.24	204
2174.12	222
2181.99	208
2189.85	222
2197.7	214
2205.55	212
2213.38	212
2221.2	218
2229.02	212
2236.82	218
2244.62	214
2252.4	214
2260.18	216
2267.95	210
2275.71	210
2283.46	212
2291.2	226
2298.93	216
2306.65	232
2314.37	236
2322.07	234
2329.77	222
2337.45	232
2345.13	216
2352.8	226
2360.46	230
2368.11	216
2375.75	226
2383.38	232
2391.01	206
2398.62	210
2406.23	228
2413.82	212
2421.41	218
2428.99	212
2436.56	216
2444.12	210
2449.79	220

File: ps-ppo-7jan25-0,0000-map2_Y02_X06.txt
182.393	714
192.79	576
203.174	494
213.542	464
223.897	610
234.238	1288
244.566	894
254.878	498
265.178	316
275.463	274
285.734	384
295.992	608
306.236	468
316.467	352
326.684	384
336.887	414
347.075	358
357.251	366
367.413	340
377.562	320
387.697	250
397.819	242
407.926	274
418.02	350
428.101	246
438.169	170
448.223	176
458.264	194
468.291	230
478.306	396
488.307	466
498.294	218
508.269	262
518.23	312
528.177	398
538.113	806
548.034	470
557.942	508
567.838	2714
577.72	1572
587.589	618
597.446	454
607.289	250
617.119	236
626.936	276
636.741	336
646.533	260
656.313	198
666.078	188
675.831	182
685.571	174
695.299	176
705.014	180
714.716	256
724.406	220
734.082	222
743.746	290
753.398	322
763.037	198
772.664	204
782.278	222
791.879	194
801.467	208
811.044	210
820.608	232
830.16	852
839.699	404
849.226	280
858.741	244
868.243	200
877.731	204
887.209	182
896.674	184
906.128	192
915.569	176
924.997	196
934.414	192
943.818	280
953.211	542
962.59	920
971.958	434
981.314	264
990.659	240
999.99	210
1009.31	198
1018.62	228
1027.91	258
1037.2	296
1046.47	224
1055.73	212
1064.98	220
1074.22	200
1083.44	216
1092.65	204
1101.86	246
1111.05	836
1120.22	368
1129.39	280
1138.54	270
1147.69	228
1156.82	244
1165.94	288
1175.05	272
1184.14	566
1193.23	436
1202.3	500
1211.36	304
1220.41	244
1229.45	344
1238.48	246
1247.5	238
1256.5	246
1265.49	260
1274.48	274
1283.45	378
1292.41	510
1301.36	1552
1310.29	1292
1319.22	540
1328.13	462
1337.04	358
1345.93	352
1354.81	390
1363.68	316
1372.54	534
1381.38	1036
1390.22	416
1399.05	272
1407.86	308
1416.66	334
1425.46	414
1434.24	490
1443.01	534
1451.77	418
1460.52	404
1469.25	374
1477.98	348
1486.7	336
1495.4	316
1504.1	278
1512.78	272
1521.45	280
1530.11	274
1538.76	282
1547.41	282
1556.03	284
1564.65	302
1573.26	340
1581.86	436
1590.45	792
1599.02	1372
1607.59	1314
1616.14	742
1624.69	432
1633.22	302
1641.75	262
1650.26	244
1658.76	242
1667.26	258
1675.74	250
1684.21	256
1692.67	256
1701.12	244
1709.56	246
1717.99	246
1726.41	234
1734.82	216
1743.22	238
1751.61	206
1759.99	230
1768.36	240
1776.71	202
1785.06	210
1793.4	228
1801.73	220
1810.04	226
1818.35	214
1826.65	226
1834.94	194
1843.21	212
1851.48	212
1859.74	208
1867.98	224
1876.22	214
1884.45	206
1892.67	216
1900.87	218
1909.07	218
1917.26	236
1925.43	224
1933.6	196
1941.76	204
1949.91	208
1958.05	220
1966.17	220
1974.29	204
1982.4	208
1990.5	232
1998.59	202
2006.67	214
2014.74	206
2022.8	198
2030.85	226
2038.89	222
2046.92	226
2054.94	214
2062.95	206
2070.96	212
2078.95	218
2086.93	214
2094.91	218
2102.87	218
2110.83	212
2118.77	204
2126.71	210
2134.63	212
2142.55	208
2150.46	216
2158.35	210
2166.24	208
2174.12	220
2181.99	204
2189.85	218
2197.7	192
2205.55	198
2213.38	210
2221.2	216
2229.02	200
2236.82	210
2244.62	222
2252.4	210
2260.18	200
2267.95	196
2275.71	204
2283.46	222
2291.2	214
2298.93	216
2306.65	230
2314.37	232
2322.07	220
2329.77	232
2337.45	224
2345.13	224
2352.8	218
2360.46	218
2368.11	222
2375.75	228
2383.38	234
2391.01	218
2398.62	230
2406.23	222
2413.82	214
2421.41	210
2428.99	218
2436.56	202
2444.12	214
2449.79	220

File: ps-ppo-7jan25-0,0000-map2_Y02_X08.txt
182.393	708
192.79	606
203.174	518
213.542	454
223.897	594
234.238	1288
244.566	888
254.878	504
265.178	294
275.463	302
285.734	394
295.992	630
306.236	476
316.467	382
326.684	376
336.887	410
347.075	360
357.251	394
367.413	352
377.562	320
387.697	256
397.819	246
407.926	292
418.02	366
428.101	226
438.169	208
448.223	174
458.264	186
468.291	248
478.306	402
488.307	458
498.294	240
508.269	258
518.23	310
528.177	396
538.113	792
548.034	464
557.942	520
567.838	2728
577.72	1560
587.589	582
597.446	442
607.289	246
617.119	238
626.936	282
636.741	332
646.533	248
656.313	210
666.078	188
675.831	170
685.571	180
695.299	170
705.014	202
714.716	276
724.406	230
734.082	204
743.746	294
753.398	288
763.037	202
772.664	200
782.278	228
791.879	184
801.467	196
811.044	212
820.608	236
830.16	832
839.699	408
849.226	266
858.741	240
868.243	222
877.731	198
887.209	190
896.674	182
906.128	192
915.569	190
924.997	196
934.414	200
943.818	270
953.211	532
962.59	946
971.958	480
981.314	262
990.659	228
999.99	216
1009.31	204
1018.62	222
1027.91	278
1037.2	296
1046.47	236
1055.73	214
1064.98	206
1074.22	216
1083.44	210
1092.65	234
1101.86	250
1111.05	826
1120.22	394
1129.39	268
1138.54	252
1147.69	224
1156.82	240
1165.94	282
1175.05	296
1184.14	562
1193.23	444
1202.3	466
1211.36	318
1220.41	258
1229.45	388
1238.48	256
1247.5	216
1256.5	234
1265.49	264
1274.48	278
1283.45	370
1292.41	504
1301.36	1596
1310.29	1360
1319.22	556
1328.13	482
1337.04	348
1345.93	360
1354.81	388
1363.68	328
1372.54	580
1381.38	1044
1390.22	406
1399.05	258
1407.86	274
1416.66	332
1425.46	410
1434.24	480
1443.01	496
1451.77	414
1460.52	370
1469.25	380
1477.98	360
1486.7	312
1495.4	280
1504.1	280
1512.78	282
1521.45	286
1530.11	280
1538.76	282
1547.41	284
1556.03	284
1564.65	300
1573.26	358
1581.86	464
1590.45	796
1599.02	1368
1607.59	1296
1616.14	732
1624.69	410
1633.22	308
1641.75	280
1650.26	248
1658.76	246
1667.26	236
1675.74	240
1684.21	242
1692.67	238
1701.12	274
1709.56	244
1717.99	246
1726.41	226
1734.82	212
1743.22	230
1751.61	224
1759.99	218
1768.36	214
1776.71	218
1785.06	224
1793.4	218
1801.73	224
1810.04	204
1818.35	202
1826.65	212
1834.94	198
1843.21	204
1851.48	224
1859.74	224
1867.98	210
1876.22	202
1884.45	214
1892.67	200
1900.87	212
1909.07	214
1917.26	224
1925.43	210
1933.6	220
1941.76	208
1949.91	220
1958.05	222
1966.17	210
1974.29	200
1982.4	218
1990.5	218
1998.59	196
2006.67	212
2014.74	220
2022.8	210
2030.85	232
2038.89	216
2046.92	206
2054.94	220
2062.95	226
2070.96	216
2078.95	210
2086.93	200
2094.91	202
2102.87	210
2110.83	226
2118.77	224
2126.71	212
2134.63	220
2142.55	216
2150.46	214
2158.35	226
2166.24	214
2174.12	226
2181.99	210
2189.85	220
2197.7	222
2205.55	200
2213.38	208
2221.2	202
2229.02	210
2236.82	224
2244.62	226
2252.4	200
2260.18	218
2267.95	220
2275.71	226
2283.46	210
2291.2	204
2298.93	220
2306.65	208
2314.37	210
2322.07	234
2329.77	212
2337.45	206
2345.13	214
2352.8	210
2360.46	212
2368.11	204
2375.75	222
2383.38	226
2391.01	222
2398.62	206
2406.23	242
2413.82	216
2421.41	228
2428.99	222
2436.56	210
2444.12	220
2449.79	218

File: ps-ppo-7jan25-0,0000-map2_Y02_X10.txt
182.393	712
192.79	616
203.174	540
213.542	460
223.897	652
234.238	1358
244.566	920
254.878	480
265.178	330
275.463	302
285.734	386
295.992	656
306.236	498
316.467	396
326.684	406
336.887	420
347.075	378
357.251	366
367.413	350
377.562	322
387.697	250
397.819	252
407.926	286
418.02	380
428.101	246
438.169	196
448.223	180
458.264	188
468.291	266
478.306	430
488.307	460
498.294	258
508.269	266
518.23	338
528.177	412
538.113	818
548.034	466
557.942	552
567.838	2742
577.72	1602
587.589	628
597.446	482
607.289	248
617.119	212
626.936	288
636.741	354
646.533	268
656.313	210
666.078	186
675.831	190
685.571	184
695.299	186
705.014	198
714.716	264
724.406	230
734.082	252
743.746	282
753.398	316
763.037	218
772.664	244
782.278	240
791.879	222
801.467	204
811.044	210
820.608	272
830.16	828
839.699	422
849.226	290
858.741	260
868.243	224
877.731	204
887.209	200
896.674	198
906.128	194
915.569	180
924.997	206
934.414	214
943.818	296
953.211	604
962.59	904
971.958	460
981.314	270
990.659	248
999.99	222
1009.31	234
1018.62	250
1027.91	308
1037.2	294
1046.47	252
1055.73	236
1064.98	226
1074.22	238
1083.44	240
1092.65	234
1101.86	264
1111.05	874
1120.22	404
1129.39	274
1138.54	284
1147.69	260
1156.82	278
1165.94	312
1175.05	298
1184.14	602
1193.23	472
1202.3	502
1211.36	340
1220.41	260
1229.45	390
1238.48	282
1247.5	242
1256.5	238
1265.49	276
1274.48	290
1283.45	392
1292.41	526
1301.36	1590
1310.29	1374
1319.22	584
1328.13	494
1337.04	396
1345.93	402
1354.81	406
1363.68	344
1372.54	560
1381.38	1086
1390.22	426
1399.05	318
1407.86	308
1416.66	358
1425.46	460
1434.24	502
1443.01	548
1451.77	454
1460.52	412
1469.25	408
1477.98	400
1486.7	308
1495.4	326
1504.1	320
1512.78	314
1521.45	318
1530.11	302
1538.76	308
1547.41	318
1556.03	330
1564.65	326
1573.26	390
1581.86	506
1590.45	764
1599.02	1444
1607.59	1346
1616.14	778
1624.69	432
1633.22	320
1641.75	274
1650.26	280
1658.76	254
1667.26	274
1675.74	252
1684.21	260
1692.67	266
1701.12	254
1709.56	284
1717.99	262
1726.41	252
1734.82	250
1743.22	240
1751.61	258
1759.99	244
1768.36	232
1776.71	236
1785.06	250
1793.4	248
1801.73	228
1810.04	236
1818.35	246
1826.65	214
1834.94	246
1843.21	248
1851.48	246
1859.74	214
1867.98	228
1876.22	242
1884.45	234
1892.67	228
1900.87	244
1909.07	232
1917.26	244
1925.43	228
1933.6	228
1941.76	254
1949.91	236
1958.05	232
1966.17	250
1974.29	246
1982.4	234
1990.5	232
1998.59	254
2006.67	236
2014.74	234
2022.8	240
2030.85	226
2038.89	236
2046.92	234
2054.94	234
2062.95	232
2070.96	248
2078.95	218
2086.93	240
2094.91	232
2102.87	234
2110.83	238
2118.77	238
2126.71	240
2134.63	248
2142.55	238
2150.46	226
2158.35	236
2166.24	232
2174.12	252
2181.99	220
2189.85	238
2197.7	228
2205.55	234
2213.38	242
2221.2	232
2229.02	240
2236.82	246
2244.62	224
2252.4	228
2260.18	240
2267.95	222
2275.71	228
2283.46	224
2291.2	226
2298.93	238
2306.65	230
2314.37	222
2322.07	242
2329.77	246
2337.45	226
2345.13	224
2352.8	220
2360.46	252
2368.11	222
2375.75	224
2383.38	244
2391.01	228
2398.62	228
2406.23	230
2413.82	230
2421.41	214
2428.99	216
2436.56	224
2444.12	212
2449.79	234

File: ps-ppo-7jan25-0,0000-map2_Y03_X02.txt
182.393	716
192.79	650
203.174	510
213.542	474
223.897	608
234.238	1298
244.566	900
254.878	470
265.178	312
275.463	278
285.734	396
295.992	608
306.236	474
316.467	384
326.684	372
336.887	398
347.075	362
357.251	360
367.413	318
377.562	312
387.697	270
397.819	236
407.926	286
418.02	334
428.101	234
438.169	182
448.223	174
458.264	184
468.291	254
478.306	402
488.307	454
498.294	238
508.269	258
518.23	318
528.177	392
538.113	792
548.034	454
557.942	536
567.838	2760
577.72	1600
587.589	596
597.446	484
607.289	234
617.119	218
626.936	266
636.741	316
646.533	262
656.313	190
666.078	182
675.831	164
685.571	184
695.299	160
705.014	198
714.716	262
724.406	204
734.082	214
743.746	304
753.398	300
763.037	226
772.664	208
782.278	218
791.879	192
801.467	196
811.044	214
820.608	240
830.16	846
839.699	386
849.226	276
858.741	244
868.243	196
877.731	192
887.209	184
896.674	170
906.128	168
915.569	188
924.997	176
934.414	220
943.818	254
953.211	558
962.59	908
971.958	466
981.314	254
990.659	226
999.99	192
1009.31	198
1018.62	242
1027.91	266
1037.2	320
1046.47	234
1055.73	212
1064.98	200
1074.22	206
1083.44	204
1092.65	206
1101.86	246
1111.05	816
1120.22	396
1129.39	266
1138.54	252
1147.69	236
1156.82	220
1165.94	270
1175.05	304
1184.14	566
1193.23	470
1202.3	490
1211.36	318
1220.41	264
1229.45	356
1238.48	258
1247.5	222
1256.5	236
1265.49	242
1274.48	262
1283.45	354
1292.41	532
1301.36	1642
1310.29	1280
1319.22	574
1328.13	478
1337.04	368
1345.93	376
1354.81	376
1363.68	332
1372.54	572
1381.38	1078
1390.22	372
1399.05	288
1407.86	288
1416.66	314
1425.46	420
1434.24	508
1443.01	508
1451.77	426
1460.52	396
1469.25	384
1477.98	378
1486.7	302
1495.4	286
1504.1	276
1512.78	276
1521.45	296
1530.11	268
1538.76	276
1547.41	306
1556.03	300
1564.65	296
1573.26	344
1581.86	468
1590.45	744
1599.02	1386
1607.59	1284
1616.14	742
1624.69	398
1633.22	312
1641.75	258
1650.26	254
1658.76	240
1667.26	236
1675.74	224
1684.21	230
1692.67	250
1701.12	258
1709.56	236
1717.99	230
1726.41	210
1734.82	218
1743.22	222
1751.61	216
1759.99	218
1768.36	238
1776.71	214
1785.06	232
1793.4	224
1801.73	236
1810.04	216
1818.35	222
1826.65	226
1834.94	208
1843.21	216
1851.48	218
1859.74	230
1867.98	214
1876.22	218
1884.45	214
1892.67	230
1900.87	214
1909.07	224
1917.26	212
1925.43	212
1933.6	240
1941.76	216
1949.91	216
1958.05	220
1966.17	224
1974.29	234
1982.4	222
1990.5	222
1998.59	212
2006.67	218
2014.74	224
2022.8	202
2030.85	216
2038.89	194
2046.92	212
2054.94	210
2062.95	232
2070.96	204
2078.95	208
2086.93	212
2094.91	226
2102.87	198
2110.83	204
2118.77	226
2126.71	212
2134.63	224
2142.55	222
2150.46	202
2158.35	224
2166.24	218
2174.12	214
2181.99	216
2189.85	206
2197.7	206
2205.55	208
2213.38	212
2221.2	220
2229.02	220
2236.82	204
2244.62	216
2252.4	222
2260.18	212
2267.95	200
2275.71	228
2283.46	220
2291.2	208
2298.93	216
2306.65	218
2314.37	216
2322.07	216
2329.77	218
2337.45	232
2345.13	216
2352.8	212
2360.46	222
2368.11	220
2375.75	224
2383.38	210
2391.01	212
2398.62	224
2406.23	232
2413.82	216
2421.41	210
2428.99	204
2436.56	208
2444.12	214
2449.79	222

File: ps-ppo-7jan25-0,0000-map2_Y03_X03.txt
182.393	676
192.79	612
203.174	494
213.542	460
223.897	616
234.238	1298
244.566	874
254.878	472
265.178	324
275.463	284
285.734	368
295.992	616
306.236	448
316.467	348
326.684	370
336.887	380
347.075	344
357.251	356
367.413	342
377.562	326
387.697	250
397.819	234
407.926	264
418.02	364
428.101	222
438.169	180
448.223	172
458.264	184
468.291	244
478.306	400
488.307	436
498.294	226
508.269	262
518.23	310
528.177	386
538.113	764
548.034	480
557.942	542
567.838	2768
577.72	1556
587.589	610
597.446	462
607.289	236
617.119	210
626.936	290
636.741	338
646.533	238
656.313	200
666.078	180
675.831	164
685.571	168
695.299	166
705.014	176
714.716	248
724.406	222
734.082	224
743.746	284
753.398	314
763.037	204
772.664	198
782.278	198
791.879	192
801.467	198
811.044	220
820.608	222
830.16	822
839.699	380
849.226	268
858.741	240
868.243	200
877.731	200
887.209	190
896.674	172
906.128	180
915.569	178
924.997	184
934.414	182
943.818	236
953.211	530
962.59	920
971.958	458
981.314	236
990.659	232
999.99	204
1009.31	194
1018.62	214
1027.91	254
1037.2	292
1046.47	220
1055.73	202
1064.98	218
1074.22	198
1083.44	200
1092.65	216
1101.86	260
1111.05	862
1120.22	364
1129.39	262
1138.54	268
1147.69	242
1156.82	256
1165.94	258
1175.05	272
1184.14	562
1193.23	424
1202.3	454
1211.36	310
1220.41	246
1229.45	358
1238.48	254
1247.5	224
1256.5	226
1265.49	248
1274.48	258
1283.45	356
1292.41	522
1301.36	1574
1310.29	1310
1319.22	524
1328.13	480
1337.04	324
1345.93	368
1354.81	356
1363.68	306
1372.54	550
1381.38	1028
1390.22	396
1399.05	282
1407.86	294
1416.66	338
1425.46	398
1434.24	478
1443.01	480
1451.77	402
1460.52	378
1469.25	362
1477.98	362
1486.7	338
1495.4	266
1504.1	290
1512.78	272
1521.45	274
1530.11	278
1538.76	256
1547.41	290
1556.03	274
1564.65	308
1573.26	338
1581.86	470
1590.45	770
1599.02	1354
1607.59	1256
1616.14	738
1624.69	396
1633.22	302
1641.75	254
1650.26	248
1658.76	242
1667.26	250
1675.74	214
1684.21	218
1692.67	232
1701.12	236
1709.56	230
1717.99	224
1726.41	206
1734.82	202
1743.22	218
1751.61	198
1759.99	212
1768.36	218
1776.71	202
1785.06	212
1793.4	224
1801.73	212
1810.04	192
1818.35	212
1826.65	210
1834.94	212
1843.21	208
1851.48	206
1859.74	204
1867.98	216
1876.22	214
1884.45	212
1892.67	234
1900.87	234
1909.07	202
1917.26	198
1925.43	204
1933.6	218
1941.76	206
1949.91	204
1958.05	216
1966.17	204
1974.29	200
1982.4	214
1990.5	220
1998.59	218
2006.67	190
2014.74	192
2022.8	200
2030.85	204
2038.89	210
2046.92	206
2054.94	222
2062.95	214
2070.96	222
2078.95	208
2086.93	202
2094.91	226
2102.87	202
2110.83	214
2118.77	206
2126.71	202
2134.63	200
2142.55	210
2150.46	208
2158.35	196
2166.24	214
2174.12	206
2181.99	198
2189.85	212
2197.7	196
2205.55	204
2213.38	210
2221.2	220
2229.02	196
2236.82	208
2244.62	206
2252.4	204
2260.18	224
2267.95	216
2275.71	226
2283.46	192
2291.2	210
2298.93	212
2306.65	218
2314.37	224
2322.07	216
2329.77	216
2337.45	214
2345.13	200
2352.8	222
2360.46	206
2368.11	218
2375.75	222
2383.38	210
2391.01	216
2398.62	208
2406.23	222
2413.82	210
2421.41	222
2428.99	198
2436.56	198
2444.12	204
2449.79	208

File: ps-ppo-7jan25-0,0000-map2_Y03_X04.txt
182.393	700
192.79	594
203.174	508
213.542	456
223.897	604
234.238	1286
244.566	892
254.878	482
265.178	290
275.463	288
285.734	386
295.992	640
306.236	444
316.467	390
326.684	354
336.887	372
347.075	340
357.251	364
367.413	316
377.562	302
387.697	248
397.819	220
407.926	286
418.02	336
428.101	246
438.169	178
448.223	150
458.264	176
468.291	242
478.306	404
488.307	434
498.294	218
508.269	248
518.23	326
528.177	396
538.113	764
548.034	420
557.942	496
567.838	2682
577.72	1522
587.589	618
597.446	458
607.289	226
617.119	218
626.936	286
636.741	334
646.533	248
656.313	208
666.078	172
675.831	168
685.571	168
695.299	170
705.014	184
714.716	248
724.406	198
734.082	220
743.746	292
753.398	290
763.037	194
772.664	188
782.278	226
791.879	204
801.467	208
811.044	194
820.608	230
830.16	836
839.699	408
849.226	286
858.741	236
868.243	214
877.731	196
887.209	172
896.674	190
906.128	178
915.569	166
924.997	184
934.414	216
943.818	248
953.211	538
962.59	946
971.958	476
981.314	240
990.659	222
999.99	216
1009.31	210
1018.62	218
1027.91	276
1037.2	282
1046.47	228
1055.73	208
1064.98	208
1074.22	202
1083.44	202
1092.65	218
1101.86	242
1111.05	826
1120.22	380
1129.39	262
1138.54	256
1147.69	246
1156.82	250
1165.94	254
1175.05	276
1184.14	544
1193.23	452
1202.3	470
1211.36	298
1220.41	272
1229.45	354
1238.48	270
1247.5	252
1256.5	244
1265.49	252
1274.48	284
1283.45	356
1292.41	502
1301.36	1534
1310.29	1360
1319.22	536
1328.13	472
1337.04	354
1345.93	382
1354.81	364
1363.68	292
1372.54	554
1381.38	1014
1390.22	394
1399.05	276
1407.86	274
1416.66	328
1425.46	420
1434.24	498
1443.01	482
1451.77	402
1460.52	382
1469.25	364
1477.98	370
1486.7	308
1495.4	300
1504.1	284
1512.78	274
1521.45	270
1530.11	270
1538.76	278
1547.41	276
1556.03	302
1564.65	310
1573.26	330
1581.86	444
1590.45	770
1599.02	1354
1607.59	1292
1616.14	732
1624.69	398
1633.22	304
1641.75	266
1650.26	256
1658.76	246
1667.26	222
1675.74	226
1684.21	254
1692.67	260
1701.12	260
1709.56	248
1717.99	242
1726.41	230
1734.82	242
1743.22	208
1751.61	210
1759.99	234
1768.36	234
1776.71	226
1785.06	216
1793.4	252
1801.73	228
1810.04	208
1818.35	216
1826.65	226
1834.94	214
1843.21	202
1851.48	212
1859.74	232
1867.98	214
1876.22	200
1884.45	226
1892.67	202
1900.87	210
1909.07	212
1917.26	210
1925.43	204
1933.6	218
1941.76	210
1949.91	210
1958.05	202
1966.17	208
1974.29	222
1982.4	234
1990.5	202
1998.59	210
2006.67	228
2014.74	230
2022.8	214
2030.85	204
2038.89	202
2046.92	210
2054.94	208
2062.95	210
2070.96	212
2078.95	232
2086.93	214
2094.91	210
2102.87	200
2110.83	202
2118.77	208
2126.71	198
2134.63	212
2142.55	206
2150.46	216
2158.35	206
2166.24	216
2174.12	216
2181.99	212
2189.85	210
2197.7	202
2205.55	208
2213.38	228
2221.2	228
2229.02	208
2236.82	212
2244.62	222
2252.4	218
2260.18	194
2267.95	212
2275.71	214
2283.46	216
2291.2	206
2298.93	216
2306.65	206
2314.37	222
2322.07	222
2329.77	232
2337.45	228
2345.13	226
2352.8	204
2360.46	226
2368.11	216
2375.75	216
2383.38	214
2391.01	224
2398.62	226
2406.23	228
2413.82	236
2421.41	224
2428.99	206
2436.56	218
2444.12	218
2449.79	202

File: ps-ppo-7jan25-0,0000-map2_Y03_X09.txt
182.393	714
192.79	620
203.174	522
213.542	456
223.897	608
234.238	1294
244.566	886
254.878	472
265.178	312
275.463	294
285.734	428
295.992	638
306.236	502
316.467	396
326.684	396
336.887	422
347.075	342
357.251	382
367.413	330
377.562	330
387.697	256
397.819	248
407.926	306
418.02	350
428.101	240
438.169	200
448.223	168
458.264	184
468.291	264
478.306	394
488.307	446
498.294	248
508.269	280
518.23	324
528.177	406
538.113	792
548.034	464
557.942	546
567.838	2756
577.72	1580
587.589	616
597.446	460
607.289	268
617.119	234
626.936	296
636.741	320
646.533	254
656.313	214
666.078	168
675.831	172
685.571	168
695.299	184
705.014	188
714.716	276
724.406	214
734.082	228
743.746	296
753.398	302
763.037	208
772.664	214
782.278	222
791.879	188
801.467	186
811.044	220
820.608	242
830.16	834
839.699	410
849.226	266
858.741	250
868.243	192
877.731	196
887.209	180
896.674	180
906.128	176
915.569	204
924.997	196
934.414	208
943.818	258
953.211	546
962.59	890
971.958	458
981.314	238
990.659	238
999.99	208
1009.31	208
1018.62	254
1027.91	250
1037.2	284
1046.47	246
1055.73	210
1064.98	196
1074.22	208
1083.44	192
1092.65	230
1101.86	274
1111.05	834
1120.22	376
1129.39	242
1138.54	266
1147.69	244
1156.82	260
1165.94	262
1175.05	284
1184.14	578
1193.23	482
1202.3	508
1211.36	330
1220.41	260
1229.45	352
1238.48	268
1247.5	254
1256.5	220
1265.49	246
1274.48	262
1283.45	368
1292.41	528
1301.36	1586
1310.29	1346
1319.22	548
1328.13	480
1337.04	356
1345.93	364
1354.81	358
1363.68	300
1372.54	558
1381.38	1082
1390.22	418
1399.05	278
1407.86	296
1416.66	344
1425.46	414
1434.24	486
1443.01	506
1451.77	406
1460.52	384
1469.25	374
1477.98	366
1486.7	334
1495.4	306
1504.1	278
1512.78	290
1521.45	280
1530.11	274
1538.76	292
1547.41	282
1556.03	296
1564.65	326
1573.26	372
1581.86	488
1590.45	798
1599.02	1386
1607.59	1392
1616.14	782
1624.69	440
1633.22	306
1641.75	294
1650.26	248
1658.76	248
1667.26	228
1675.74	248
1684.21	236
1692.67	268
1701.12	262
1709.56	248
1717.99	232
1726.41	230
1734.82	242
1743.22	234
1751.61	218
1759.99	224
1768.36	234
1776.71	208
1785.06	222
1793.4	216
1801.73	234
1810.04	234
1818.35	226
1826.65	218
1834.94	230
1843.21	232
1851.48	224
1859.74	228
1867.98	232
1876.22	224
1884.45	220
1892.67	218
1900.87	224
1909.07	224
1917.26	236
1925.43	224
1933.6	234
1941.76	208
1949.91	220
1958.05	228
1966.17	216
1974.29	212
1982.4	220
1990.5	208
1998.59	232
2006.67	228
2014.74	228
2022.8	234
2030.85	206
2038.89	218
2046.92	234
2054.94	222
2062.95	228
2070.96	214
2078.95	222
2086.93	232
2094.91	212
2102.87	222
2110.83	224
2118.77	228
2126.71	224
2134.63	202
2142.55	216
2150.46	220
2158.35	240
2166.24	210
2174.12	224
2181.99	222
2189.85	214
2197.7	214
2205.55	200
2213.38	222
2221.2	220
2229.02	214
2236.82	216
2244.62	218
2252.4	202
2260.18	226
2267.95	220
2275.71	222
2283.46	210
2291.2	218
2298.93	216
2306.65	230
2314.37	220
2322.07	206
2329.77	234
2337.45	226
2345.13	208
2352.8	222
2360.46	228
2368.11	218
2375.75	200
2383.38	216
2391.01	240
2398.62	234
2406.23	234
2413.82	228
2421.41	206
2428.99	214
2436.56	200
2444.12	232
2449.79	230