Folder: NRC_SU25_Spectral_Classification/Jesse_Dataset_v2/Pure Raman/Polypropylene oxide/633nm (part 5)

File: ps-ppo-7jan25-0,0000-map2_Y07_X02.txt
182.393	694
192.79	590
203.174	498
213.542	426
223.897	590
234.238	1266
244.566	870
254.878	470
265.178	300
275.463	278
285.734	396
295.992	608
306.236	458
316.467	358
326.684	386
336.887	374
347.075	334
357.251	362
367.413	304
377.562	312
387.697	246
397.819	226
407.926	260
418.02	340
428.101	218
438.169	186
448.223	178
458.264	194
468.291	222
478.306	398
488.307	456
498.294	230
508.269	254
518.23	324
528.177	400
538.113	772
548.034	466
557.942	504
567.838	2738
577.72	1514
587.589	606
597.446	460
607.289	232
617.119	204
626.936	260
636.741	320
646.533	246
656.313	206
666.078	164
675.831	164
685.571	166
695.299	172
705.014	174
714.716	236
724.406	216
734.082	208
743.746	270
753.398	278
763.037	204
772.664	202
782.278	204
791.879	194
801.467	196
811.044	184
820.608	238
830.16	780
839.699	370
849.226	264
858.741	246
868.243	200
877.731	180
887.209	178
896.674	160
906.128	174
915.569	184
924.997	174
934.414	206
943.818	264
953.211	516
962.59	894
971.958	462
981.314	246
990.659	212
999.99	204
1009.31	212
1018.62	228
1027.91	258
1037.2	250
1046.47	214
1055.73	202
1064.98	200
1074.22	192
1083.44	198
1092.65	214
1101.86	242
1111.05	808
1120.22	378
1129.39	262
1138.54	242
1147.69	246
1156.82	256
1165.94	266
1175.05	254
1184.14	552
1193.23	450
1202.3	470
1211.36	326
1220.41	244
1229.45	344
1238.48	248
1247.5	232
1256.5	242
1265.49	246
1274.48	248
1283.45	348
1292.41	480
1301.36	1544
1310.29	1386
1319.22	554
1328.13	486
1337.04	350
1345.93	356
1354.81	354
1363.68	320
1372.54	512
1381.38	1044
1390.22	402
1399.05	268
1407.86	272
1416.66	302
1425.46	410
1434.24	452
1443.01	518
1451.77	388
1460.52	396
1469.25	358
1477.98	350
1486.7	302
1495.4	284
1504.1	282
1512.78	248
1521.45	262
1530.11	276
1538.76	268
1547.41	280
1556.03	292
1564.65	296
1573.26	328
1581.86	448
1590.45	730
1599.02	1364
1607.59	1278
1616.14	722
1624.69	392
1633.22	308
1641.75	264
1650.26	248
1658.76	238
1667.26	238
1675.74	214
1684.21	252
1692.67	250
1701.12	236
1709.56	256
1717.99	208
1726.41	222
1734.82	206
1743.22	206
1751.61	222
1759.99	198
1768.36	216
1776.71	210
1785.06	216
1793.4	208
1801.73	206
1810.04	212
1818.35	202
1826.65	220
1834.94	202
1843.21	200
1851.48	200
1859.74	194
1867.98	210
1876.22	190
1884.45	222
1892.67	224
1900.87	210
1909.07	216
1917.26	212
1925.43	194
1933.6	214
1941.76	200
1949.91	202
1958.05	212
1966.17	194
1974.29	204
1982.4	188
1990.5	210
1998.59	214
2006.67	230
2014.74	196
2022.8	212
2030.85	198
2038.89	196
2046.92	212
2054.94	206
2062.95	216
2070.96	214
2078.95	216
2086.93	222
2094.91	208
2102.87	200
2110.83	222
2118.77	196
2126.71	206
2134.63	214
2142.55	198
2150.46	182
2158.35	208
2166.24	204
2174.12	206
2181.99	204
2189.85	220
2197.7	210
2205.55	212
2213.38	204
2221.2	210
2229.02	210
2236.82	198
2244.62	198
2252.4	218
2260.18	212
2267.95	194
2275.71	212
2283.46	232
2291.2	206
2298.93	218
2306.65	224
2314.37	220
2322.07	232
2329.77	218
2337.45	214
2345.13	202
2352.8	200
2360.46	204
2368.11	206
2375.75	220
2383.38	214
2391.01	222
2398.62	214
2406.23	228
2413.82	206
2421.41	206
2428.99	204
2436.56	198
2444.12	228
2449.79	200

File: ps-ppo-7jan25-0,0000-map2_Y07_X03.txt
182.393	698
192.79	580
203.174	478
213.542	442
223.897	586
234.238	1300
244.566	864
254.878	456
265.178	308
275.463	288
285.734	368
295.992	640
306.236	434
316.467	360
326.684	370
336.887	372
347.075	352
357.251	374
367.413	336
377.562	308
387.697	230
397.819	230
407.926	252
418.02	334
428.101	218
438.169	190
448.223	166
458.264	168
468.291	224
478.306	380
488.307	438
498.294	228
508.269	256
518.23	294
528.177	358
538.113	766
548.034	446
557.942	500
567.838	2656
577.72	1568
587.589	596
597.446	434
607.289	218
617.119	214
626.936	250
636.741	320
646.533	242
656.313	192
666.078	168
675.831	160
685.571	166
695.299	164
705.014	188
714.716	234
724.406	196
734.082	198
743.746	260
753.398	298
763.037	198
772.664	198
782.278	210
791.879	190
801.467	186
811.044	194
820.608	232
830.16	776
839.699	384
849.226	270
858.741	238
868.243	200
877.731	174
887.209	174
896.674	160
906.128	176
915.569	190
924.997	178
934.414	198
943.818	230
953.211	498
962.59	906
971.958	442
981.314	230
990.659	236
999.99	196
1009.31	182
1018.62	212
1027.91	264
1037.2	280
1046.47	224
1055.73	212
1064.98	174
1074.22	192
1083.44	200
1092.65	200
1101.86	252
1111.05	812
1120.22	396
1129.39	254
1138.54	248
1147.69	234
1156.82	248
1165.94	276
1175.05	270
1184.14	558
1193.23	458
1202.3	456
1211.36	304
1220.41	222
1229.45	346
1238.48	244
1247.5	204
1256.5	230
1265.49	222
1274.48	272
1283.45	344
1292.41	504
1301.36	1578
1310.29	1300
1319.22	536
1328.13	462
1337.04	332
1345.93	368
1354.81	368
1363.68	308
1372.54	556
1381.38	1030
1390.22	410
1399.05	280
1407.86	268
1416.66	316
1425.46	418
1434.24	466
1443.01	508
1451.77	406
1460.52	378
1469.25	342
1477.98	340
1486.7	298
1495.4	282
1504.1	280
1512.78	278
1521.45	260
1530.11	272
1538.76	290
1547.41	298
1556.03	282
1564.65	312
1573.26	320
1581.86	448
1590.45	742
1599.02	1338
1607.59	1276
1616.14	724
1624.69	370
1633.22	296
1641.75	260
1650.26	236
1658.76	242
1667.26	210
1675.74	210
1684.21	236
1692.67	250
1701.12	248
1709.56	230
1717.99	224
1726.41	206
1734.82	198
1743.22	218
1751.61	210
1759.99	206
1768.36	212
1776.71	206
1785.06	192
1793.4	208
1801.73	186
1810.04	208
1818.35	206
1826.65	214
1834.94	208
1843.21	194
1851.48	202
1859.74	214
1867.98	218
1876.22	216
1884.45	212
1892.67	204
1900.87	216
1909.07	220
1917.26	210
1925.43	214
1933.6	210
1941.76	194
1949.91	200
1958.05	208
1966.17	204
1974.29	200
1982.4	188
1990.5	208
1998.59	210
2006.67	204
2014.74	208
2022.8	212
2030.85	192
2038.89	208
2046.92	204
2054.94	214
2062.95	218
2070.96	216
2078.95	206
2086.93	194
2094.91	206
2102.87	200
2110.83	206
2118.77	206
2126.71	196
2134.63	218
2142.55	190
2150.46	220
2158.35	198
2166.24	224
2174.12	208
2181.99	198
2189.85	210
2197.7	188
2205.55	204
2213.38	194
2221.2	204
2229.02	214
2236.82	190
2244.62	208
2252.4	216
2260.18	208
2267.95	210
2275.71	188
2283.46	202
2291.2	194
2298.93	198
2306.65	220
2314.37	214
2322.07	206
2329.77	220
2337.45	222
2345.13	200
2352.8	208
2360.46	208
2368.11	200
2375.75	220
2383.38	206
2391.01	222
2398.62	216
2406.23	212
2413.82	224
2421.41	190
2428.99	202
2436.56	210
2444.12	212
2449.79	212

File: ps-ppo-7jan25-0,0000-map2_Y07_X06.txt
182.393	654
192.79	604
203.174	528
213.542	460
223.897	602
234.238	1230
244.566	806
254.878	474
265.178	306
275.463	276
285.734	362
295.992	624
306.236	460
316.467	378
326.684	388
336.887	406
347.075	356
357.251	352
367.413	338
377.562	312
387.697	252
397.819	238
407.926	284
418.02	350
428.101	234
438.169	186
448.223	178
458.264	180
468.291	238
478.306	374
488.307	450
498.294	242
508.269	248
518.23	316
528.177	360
538.113	774
548.034	432
557.942	508
567.838	2594
577.72	1510
587.589	604
597.446	424
607.289	238
617.119	218
626.936	254
636.741	318
646.533	244
656.313	202
666.078	190
675.831	178
685.571	176
695.299	168
705.014	176
714.716	238
724.406	204
734.082	226
743.746	276
753.398	298
763.037	206
772.664	200
782.278	218
791.879	194
801.467	176
811.044	206
820.608	258
830.16	780
839.699	370
849.226	256
858.741	224
868.243	204
877.731	188
887.209	172
896.674	170
906.128	178
915.569	184
924.997	180
934.414	196
943.818	254
953.211	530
962.59	890
971.958	474
981.314	256
990.659	216
999.99	198
1009.31	194
1018.62	242
1027.91	264
1037.2	272
1046.47	228
1055.73	208
1064.98	188
1074.22	188
1083.44	210
1092.65	202
1101.86	254
1111.05	828
1120.22	402
1129.39	250
1138.54	258
1147.69	222
1156.82	242
1165.94	258
1175.05	286
1184.14	522
1193.23	430
1202.3	458
1211.36	296
1220.41	246
1229.45	342
1238.48	250
1247.5	222
1256.5	232
1265.49	242
1274.48	262
1283.45	376
1292.41	504
1301.36	1530
1310.29	1368
1319.22	558
1328.13	456
1337.04	348
1345.93	356
1354.81	362
1363.68	316
1372.54	542
1381.38	1078
1390.22	386
1399.05	266
1407.86	282
1416.66	330
1425.46	412
1434.24	450
1443.01	490
1451.77	422
1460.52	380
1469.25	372
1477.98	364
1486.7	302
1495.4	276
1504.1	274
1512.78	286
1521.45	260
1530.11	282
1538.76	272
1547.41	278
1556.03	294
1564.65	306
1573.26	352
1581.86	456
1590.45	762
1599.02	1340
1607.59	1242
1616.14	726
1624.69	388
1633.22	312
1641.75	264
1650.26	230
1658.76	242
1667.26	244
1675.74	232
1684.21	234
1692.67	270
1701.12	222
1709.56	246
1717.99	236
1726.41	234
1734.82	214
1743.22	228
1751.61	218
1759.99	220
1768.36	222
1776.71	206
1785.06	224
1793.4	230
1801.73	214
1810.04	220
1818.35	210
1826.65	198
1834.94	202
1843.21	228
1851.48	220
1859.74	226
1867.98	202
1876.22	212
1884.45	238
1892.67	212
1900.87	204
1909.07	202
1917.26	190
1925.43	214
1933.6	212
1941.76	210
1949.91	206
1958.05	212
1966.17	216
1974.29	180
1982.4	212
1990.5	212
1998.59	216
2006.67	212
2014.74	198
2022.8	208
2030.85	212
2038.89	212
2046.92	212
2054.94	214
2062.95	204
2070.96	230
2078.95	218
2086.93	190
2094.91	196
2102.87	204
2110.83	206
2118.77	198
2126.71	204
2134.63	220
2142.55	216
2150.46	214
2158.35	216
2166.24	220
2174.12	208
2181.99	198
2189.85	204
2197.7	204
2205.55	210
2213.38	208
2221.2	224
2229.02	194
2236.82	206
2244.62	212
2252.4	210
2260.18	220
2267.95	196
2275.71	216
2283.46	220
2291.2	212
2298.93	206
2306.65	196
2314.37	220
2322.07	216
2329.77	210
2337.45	208
2345.13	228
2352.8	212
2360.46	212
2368.11	208
2375.75	232
2383.38	216
2391.01	212
2398.62	232
2406.23	210
2413.82	230
2421.41	206
2428.99	204
2436.56	196
2444.12	212
2449.79	226

File: ps-ppo-7jan25-0,0000-map2_Y07_X09.txt
182.393	678
192.79	572
203.174	486
213.542	446
223.897	564
234.238	1212
244.566	894
254.878	462
265.178	288
275.463	274
285.734	386
295.992	620
306.236	466
316.467	360
326.684	362
336.887	392
347.075	344
357.251	342
367.413	324
377.562	336
387.697	220
397.819	228
407.926	276
418.02	342
428.101	226
438.169	198
448.223	164
458.264	180
468.291	246
478.306	402
488.307	462
498.294	244
508.269	254
518.23	304
528.177	376
538.113	788
548.034	438
557.942	506
567.838	2608
577.72	1494
587.589	606
597.446	440
607.289	242
617.119	218
626.936	286
636.741	310
646.533	240
656.313	208
666.078	178
675.831	174
685.571	170
695.299	164
705.014	182
714.716	254
724.406	214
734.082	208
743.746	258
753.398	288
763.037	210
772.664	198
782.278	218
791.879	196
801.467	190
811.044	204
820.608	230
830.16	788
839.699	416
849.226	260
858.741	244
868.243	206
877.731	204
887.209	192
896.674	160
906.128	180
915.569	176
924.997	184
934.414	192
943.818	268
953.211	516
962.59	882
971.958	416
981.314	256
990.659	240
999.99	192
1009.31	192
1018.62	212
1027.91	248
1037.2	276
1046.47	244
1055.73	202
1064.98	218
1074.22	198
1083.44	200
1092.65	210
1101.86	240
1111.05	788
1120.22	368
1129.39	262
1138.54	246
1147.69	230
1156.82	230
1165.94	258
1175.05	266
1184.14	584
1193.23	444
1202.3	482
1211.36	302
1220.41	242
1229.45	376
1238.48	246
1247.5	216
1256.5	228
1265.49	278
1274.48	276
1283.45	342
1292.41	484
1301.36	1522
1310.29	1328
1319.22	504
1328.13	458
1337.04	338
1345.93	376
1354.81	342
1363.68	304
1372.54	492
1381.38	998
1390.22	380
1399.05	258
1407.86	274
1416.66	308
1425.46	404
1434.24	452
1443.01	502
1451.77	402
1460.52	372
1469.25	388
1477.98	372
1486.7	306
1495.4	292
1504.1	278
1512.78	266
1521.45	276
1530.11	278
1538.76	304
1547.41	282
1556.03	292
1564.65	308
1573.26	354
1581.86	448
1590.45	760
1599.02	1318
1607.59	1306
1616.14	754
1624.69	396
1633.22	296
1641.75	264
1650.26	256
1658.76	244
1667.26	238
1675.74	246
1684.21	236
1692.67	256
1701.12	240
1709.56	266
1717.99	238
1726.41	218
1734.82	222
1743.22	224
1751.61	220
1759.99	214
1768.36	214
1776.71	220
1785.06	234
1793.4	212
1801.73	236
1810.04	216
1818.35	216
1826.65	222
1834.94	218
1843.21	228
1851.48	212
1859.74	222
1867.98	212
1876.22	224
1884.45	208
1892.67	226
1900.87	220
1909.07	214
1917.26	222
1925.43	214
1933.6	208
1941.76	228
1949.91	206
1958.05	210
1966.17	216
1974.29	218
1982.4	200
1990.5	214
1998.59	208
2006.67	222
2014.74	206
2022.8	212
2030.85	230
2038.89	214
2046.92	230
2054.94	212
2062.95	204
2070.96	200
2078.95	204
2086.93	224
2094.91	216
2102.87	218
2110.83	220
2118.77	202
2126.71	204
2134.63	222
2142.55	230
2150.46	230
2158.35	204
2166.24	224
2174.12	200
2181.99	232
2189.85	206
2197.7	220
2205.55	208
2213.38	224
2221.2	210
2229.02	198
2236.82	206
2244.62	220
2252.4	218
2260.18	220
2267.95	214
2275.71	214
2283.46	230
2291.2	216
2298.93	212
2306.65	214
2314.37	212
2322.07	246
2329.77	222
2337.45	220
2345.13	222
2352.8	216
2360.46	214
2368.11	218
2375.75	230
2383.38	224
2391.01	222
2398.62	232
2406.23	210
2413.82	212
2421.41	230
2428.99	206
2436.56	210
2444.12	208
2449.79	232

File: ps-ppo-7jan25-0,0000-map2_Y07_X10.txt
182.393	714
192.79	594
203.174	526
213.542	458
223.897	588
234.238	1244
244.566	878
254.878	486
265.178	328
275.463	284
285.734	366
295.992	626
306.236	444
316.467	372
326.684	370
336.887	426
347.075	378
357.251	372
367.413	330
377.562	334
387.697	268
397.819	256
407.926	304
418.02	358
428.101	228
438.169	218
448.223	184
458.264	188
468.291	260
478.306	414
488.307	470
498.294	236
508.269	270
518.23	316
528.177	374
538.113	774
548.034	458
557.942	516
567.838	2518
577.72	1536
587.589	622
597.446	464
607.289	248
617.119	230
626.936	282
636.741	326
646.533	272
656.313	230
666.078	190
675.831	186
685.571	174
695.299	196
705.014	192
714.716	254
724.406	222
734.082	220
743.746	258
753.398	312
763.037	222
772.664	216
782.278	224
791.879	206
801.467	224
811.044	210
820.608	246
830.16	798
839.699	412
849.226	266
858.741	250
868.243	218
877.731	196
887.209	200
896.674	204
906.128	188
915.569	202
924.997	216
934.414	222
943.818	282
953.211	550
962.59	902
971.958	466
981.314	270
990.659	252
999.99	210
1009.31	232
1018.62	238
1027.91	262
1037.2	284
1046.47	250
1055.73	222
1064.98	224
1074.22	212
1083.44	234
1092.65	226
1101.86	264
1111.05	822
1120.22	390
1129.39	290
1138.54	256
1147.69	238
1156.82	260
1165.94	302
1175.05	288
1184.14	528
1193.23	438
1202.3	494
1211.36	314
1220.41	266
1229.45	378
1238.48	262
1247.5	238
1256.5	242
1265.49	248
1274.48	294
1283.45	376
1292.41	500
1301.36	1552
1310.29	1300
1319.22	568
1328.13	470
1337.04	382
1345.93	366
1354.81	384
1363.68	322
1372.54	536
1381.38	1050
1390.22	412
1399.05	282
1407.86	292
1416.66	328
1425.46	444
1434.24	492
1443.01	508
1451.77	428
1460.52	374
1469.25	386
1477.98	386
1486.7	328
1495.4	308
1504.1	306
1512.78	274
1521.45	304
1530.11	286
1538.76	298
1547.41	296
1556.03	298
1564.65	312
1573.26	346
1581.86	472
1590.45	756
1599.02	1294
1607.59	1256
1616.14	760
1624.69	426
1633.22	322
1641.75	280
1650.26	270
1658.76	252
1667.26	256
1675.74	236
1684.21	268
1692.67	278
1701.12	246
1709.56	256
1717.99	266
1726.41	238
1734.82	240
1743.22	228
1751.61	238
1759.99	234
1768.36	244
1776.71	246
1785.06	234
1793.4	240
1801.73	238
1810.04	228
1818.35	238
1826.65	216
1834.94	214
1843.21	240
1851.48	226
1859.74	256
1867.98	234
1876.22	240
1884.45	222
1892.67	228
1900.87	242
1909.07	238
1917.26	238
1925.43	236
1933.6	234
1941.76	226
1949.91	224
1958.05	230
1966.17	224
1974.29	238
1982.4	218
1990.5	228
1998.59	248
2006.67	226
2014.74	236
2022.8	236
2030.85	220
2038.89	224
2046.92	220
2054.94	224
2062.95	228
2070.96	242
2078.95	236
2086.93	242
2094.91	226
2102.87	228
2110.83	230
2118.77	228
2126.71	232
2134.63	230
2142.55	234
2150.46	236
2158.35	222
2166.24	250
2174.12	230
2181.99	228
2189.85	220
2197.7	242
2205.55	212
2213.38	236
2221.2	228
2229.02	222
2236.82	212
2244.62	228
2252.4	210
2260.18	242
2267.95	232
2275.71	220
2283.46	224
2291.2	232
2298.93	238
2306.65	252
2314.37	242
2322.07	230
2329.77	236
2337.45	228
2345.13	222
2352.8	230
2360.46	236
2368.11	246
2375.75	242
2383.38	226
2391.01	242
2398.62	232
2406.23	236
2413.82	232
2421.41	240
2428.99	220
2436.56	232
2444.12	220
2449.79	222

File: ps-ppo-7jan25-0,0000-map2_Y08_X00.txt
182.393	708
192.79	610
203.174	506
213.542	460
223.897	592
234.238	1246
244.566	930
254.878	484
265.178	350
275.463	324
285.734	410
295.992	630
306.236	450
316.467	396
326.684	390
336.887	426
347.075	372
357.251	394
367.413	356
377.562	332
387.697	282
397.819	258
407.926	314
418.02	390
428.101	286
438.169	202
448.223	212
458.264	202
468.291	266
478.306	396
488.307	470
498.294	252
508.269	296
518.23	352
528.177	404
538.113	748
548.034	492
557.942	532
567.838	2632
577.72	1576
587.589	596
597.446	490
607.289	266
617.119	246
626.936	274
636.741	372
646.533	282
656.313	226
666.078	196
675.831	194
685.571	210
695.299	184
705.014	218
714.716	282
724.406	240
734.082	232
743.746	310
753.398	322
763.037	224
772.664	226
782.278	242
791.879	230
801.467	222
811.044	230
820.608	258
830.16	820
839.699	440
849.226	298
858.741	276
868.243	220
877.731	206
887.209	214
896.674	190
906.128	218
915.569	202
924.997	198
934.414	246
943.818	292
953.211	562
962.59	918
971.958	498
981.314	288
990.659	252
999.99	236
1009.31	210
1018.62	254
1027.91	282
1037.2	302
1046.47	254
1055.73	246
1064.98	242
1074.22	222
1083.44	242
1092.65	256
1101.86	262
1111.05	878
1120.22	408
1129.39	296
1138.54	280
1147.69	260
1156.82	276
1165.94	312
1175.05	306
1184.14	554
1193.23	466
1202.3	498
1211.36	318
1220.41	274
1229.45	352
1238.48	284
1247.5	258
1256.5	278
1265.49	276
1274.48	314
1283.45	386
1292.41	512
1301.36	1608
1310.29	1348
1319.22	586
1328.13	520
1337.04	380
1345.93	414
1354.81	394
1363.68	348
1372.54	568
1381.38	1058
1390.22	418
1399.05	300
1407.86	292
1416.66	360
1425.46	456
1434.24	488
1443.01	522
1451.77	456
1460.52	406
1469.25	372
1477.98	390
1486.7	346
1495.4	320
1504.1	308
1512.78	306
1521.45	292
1530.11	316
1538.76	308
1547.41	312
1556.03	318
1564.65	364
1573.26	384
1581.86	484
1590.45	788
1599.02	1422
1607.59	1322
1616.14	788
1624.69	404
1633.22	342
1641.75	300
1650.26	278
1658.76	280
1667.26	282
1675.74	288
1684.21	266
1692.67	278
1701.12	276
1709.56	284
1717.99	260
1726.41	264
1734.82	238
1743.22	242
1751.61	256
1759.99	240
1768.36	248
1776.71	258
1785.06	250
1793.4	252
1801.73	242
1810.04	242
1818.35	258
1826.65	230
1834.94	246
1843.21	228
1851.48	260
1859.74	222
1867.98	238
1876.22	252
1884.45	236
1892.67	238
1900.87	244
1909.07	250
1917.26	246
1925.43	250
1933.6	224
1941.76	238
1949.91	234
1958.05	242
1966.17	226
1974.29	230
1982.4	234
1990.5	228
1998.59	226
2006.67	264
2014.74	252
2022.8	230
2030.85	238
2038.89	242
2046.92	256
2054.94	242
2062.95	224
2070.96	246
2078.95	244
2086.93	228
2094.91	234
2102.87	234
2110.83	230
2118.77	232
2126.71	236
2134.63	232
2142.55	242
2150.46	242
2158.35	230
2166.24	220
2174.12	240
2181.99	230
2189.85	234
2197.7	254
2205.55	220
2213.38	234
2221.2	240
2229.02	246
2236.82	248
2244.62	230
2252.4	244
2260.18	244
2267.95	222
2275.71	254
2283.46	228
2291.2	246
2298.93	228
2306.65	250
2314.37	232
2322.07	246
2329.77	246
2337.45	226
2345.13	244
2352.8	242
2360.46	234
2368.11	242
2375.75	234
2383.38	244
2391.01	244
2398.62	260
2406.23	246
2413.82	250
2421.41	248
2428.99	236
2436.56	234
2444.12	254
2449.79	236

File: ps-ppo-7jan25-0,0000-map2_Y08_X01.txt
182.393	698
192.79	574
203.174	538
213.542	446
223.897	596
234.238	1244
244.566	878
254.878	486
265.178	308
275.463	276
285.734	384
295.992	666
306.236	454
316.467	364
326.684	382
336.887	398
347.075	324
357.251	386
367.413	318
377.562	316
387.697	260
397.819	240
407.926	270
418.02	352
428.101	244
438.169	190
448.223	170
458.264	182
468.291	252
478.306	400
488.307	460
498.294	238
508.269	248
518.23	326
528.177	400
538.113	770
548.034	436
557.942	514
567.838	2608
577.72	1610
587.589	602
597.446	452
607.289	254
617.119	234
626.936	286
636.741	322
646.533	270
656.313	212
666.078	190
675.831	186
685.571	184
695.299	186
705.014	192
714.716	260
724.406	212
734.082	212
743.746	256
753.398	300
763.037	208
772.664	210
782.278	228
791.879	190
801.467	200
811.044	218
820.608	264
830.16	802
839.699	438
849.226	278
858.741	238
868.243	214
877.731	182
887.209	192
896.674	178
906.128	198
915.569	188
924.997	192
934.414	206
943.818	256
953.211	546
962.59	902
971.958	460
981.314	262
990.659	224
999.99	218
1009.31	210
1018.62	242
1027.91	256
1037.2	278
1046.47	252
1055.73	218
1064.98	232
1074.22	226
1083.44	186
1092.65	212
1101.86	254
1111.05	818
1120.22	374
1129.39	268
1138.54	238
1147.69	218
1156.82	260
1165.94	284
1175.05	266
1184.14	578
1193.23	458
1202.3	474
1211.36	294
1220.41	246
1229.45	352
1238.48	244
1247.5	232
1256.5	220
1265.49	274
1274.48	282
1283.45	364
1292.41	518
1301.36	1550
1310.29	1374
1319.22	566
1328.13	482
1337.04	358
1345.93	368
1354.81	368
1363.68	318
1372.54	538
1381.38	1040
1390.22	414
1399.05	292
1407.86	296
1416.66	336
1425.46	410
1434.24	468
1443.01	510
1451.77	394
1460.52	370
1469.25	360
1477.98	364
1486.7	330
1495.4	288
1504.1	274
1512.78	274
1521.45	274
1530.11	282
1538.76	274
1547.41	292
1556.03	310
1564.65	286
1573.26	348
1581.86	482
1590.45	772
1599.02	1402
1607.59	1288
1616.14	758
1624.69	394
1633.22	314
1641.75	282
1650.26	240
1658.76	238
1667.26	242
1675.74	232
1684.21	248
1692.67	280
1701.12	246
1709.56	226
1717.99	240
1726.41	238
1734.82	218
1743.22	210
1751.61	222
1759.99	236
1768.36	220
1776.71	228
1785.06	212
1793.4	238
1801.73	220
1810.04	220
1818.35	238
1826.65	226
1834.94	202
1843.21	218
1851.48	220
1859.74	216
1867.98	218
1876.22	228
1884.45	232
1892.67	216
1900.87	212
1909.07	206
1917.26	218
1925.43	214
1933.6	236
1941.76	198
1949.91	218
1958.05	204
1966.17	216
1974.29	202
1982.4	214
1990.5	210
1998.59	208
2006.67	212
2014.74	220
2022.8	218
2030.85	214
2038.89	220
2046.92	222
2054.94	206
2062.95	236
2070.96	218
2078.95	218
2086.93	224
2094.91	204
2102.87	222
2110.83	214
2118.77	224
2126.71	210
2134.63	230
2142.55	214
2150.46	226
2158.35	216
2166.24	218
2174.12	230
2181.99	222
2189.85	202
2197.7	232
2205.55	214
2213.38	216
2221.2	214
2229.02	210
2236.82	214
2244.62	232
2252.4	216
2260.18	226
2267.95	218
2275.71	218
2283.46	212
2291.2	222
2298.93	206
2306.65	214
2314.37	226
2322.07	246
2329.77	224
2337.45	224
2345.13	234
2352.8	206
2360.46	230
2368.11	214
2375.75	212
2383.38	236
2391.01	230
2398.62	214
2406.23	226
2413.82	222
2421.41	242
2428.99	222
2436.56	204
2444.12	206
2449.79	218

File: ps-ppo-7jan25-0,0000-map2_Y08_X02.txt
182.393	696
192.79	576
203.174	508
213.542	428
223.897	582
234.238	1240
244.566	864
254.878	460
265.178	306
275.463	272
285.734	374
295.992	618
306.236	450
316.467	352
326.684	376
336.887	384
347.075	348
357.251	350
367.413	314
377.562	294
387.697	252
397.819	232
407.926	252
418.02	338
428.101	216
438.169	190
448.223	174
458.264	184
468.291	222
478.306	374
488.307	458
498.294	248
508.269	242
518.23	310
528.177	384
538.113	796
548.034	478
557.942	498
567.838	2610
577.72	1510
587.589	612
597.446	436
607.289	226
617.119	220
626.936	260
636.741	312
646.533	252
656.313	196
666.078	170
675.831	166
685.571	160
695.299	154
705.014	164
714.716	226
724.406	194
734.082	220
743.746	272
753.398	280
763.037	196
772.664	192
782.278	222
791.879	186
801.467	190
811.044	198
820.608	234
830.16	788
839.699	410
849.226	268
858.741	234
868.243	212
877.731	190
887.209	178
896.674	190
906.128	166
915.569	174
924.997	184
934.414	200
943.818	250
953.211	524
962.59	898
971.958	462
981.314	244
990.659	238
999.99	196
1009.31	194
1018.62	226
1027.91	246
1037.2	294
1046.47	234
1055.73	204
1064.98	204
1074.22	188
1083.44	192
1092.65	218
1101.86	240
1111.05	832
1120.22	368
1129.39	256
1138.54	250
1147.69	216
1156.82	228
1165.94	288
1175.05	274
1184.14	548
1193.23	432
1202.3	464
1211.36	300
1220.41	236
1229.45	342
1238.48	254
1247.5	216
1256.5	228
1265.49	248
1274.48	262
1283.45	364
1292.41	508
1301.36	1554
1310.29	1284
1319.22	562
1328.13	472
1337.04	344
1345.93	374
1354.81	376
1363.68	312
1372.54	496
1381.38	1022
1390.22	382
1399.05	274
1407.86	296
1416.66	336
1425.46	400
1434.24	450
1443.01	490
1451.77	400
1460.52	376
1469.25	370
1477.98	372
1486.7	314
1495.4	284
1504.1	290
1512.78	262
1521.45	262
1530.11	266
1538.76	258
1547.41	278
1556.03	266
1564.65	292
1573.26	336
1581.86	454
1590.45	788
1599.02	1356
1607.59	1274
1616.14	712
1624.69	376
1633.22	288
1641.75	258
1650.26	234
1658.76	238
1667.26	256
1675.74	228
1684.21	218
1692.67	244
1701.12	240
1709.56	244
1717.99	220
1726.41	226
1734.82	194
1743.22	210
1751.61	202
1759.99	218
1768.36	216
1776.71	198
1785.06	224
1793.4	214
1801.73	206
1810.04	200
1818.35	204
1826.65	208
1834.94	210
1843.21	204
1851.48	212
1859.74	224
1867.98	216
1876.22	218
1884.45	210
1892.67	190
1900.87	194
1909.07	218
1917.26	220
1925.43	196
1933.6	210
1941.76	204
1949.91	206
1958.05	198
1966.17	214
1974.29	202
1982.4	214
1990.5	204
1998.59	214
2006.67	206
2014.74	226
2022.8	216
2030.85	202
2038.89	206
2046.92	206
2054.94	198
2062.95	206
2070.96	198
2078.95	216
2086.93	208
2094.91	202
2102.87	200
2110.83	212
2118.77	216
2126.71	212
2134.63	206
2142.55	216
2150.46	198
2158.35	200
2166.24	210
2174.12	216
2181.99	208
2189.85	210
2197.7	220
2205.55	216
2213.38	194
2221.2	210
2229.02	186
2236.82	214
2244.62	190
2252.4	214
2260.18	200
2267.95	228
2275.71	206
2283.46	220
2291.2	200
2298.93	224
2306.65	196
2314.37	204
2322.07	226
2329.77	202
2337.45	204
2345.13	208
2352.8	210
2360.46	206
2368.11	218
2375.75	202
2383.38	208
2391.01	218
2398.62	224
2406.23	228
2413.82	240
2421.41	198
2428.99	214
2436.56	210
2444.12	204
2449.79	198