Folder: NRC_SU25_Spectral_Classification/Jesse_Dataset_v2/Pure Raman/Polypropylene oxide/633nm (part 7)

File: ps-ppo-7jan25-0,0000-map2_Y10_X05.txt
182.393	656
192.79	576
203.174	486
213.542	452
223.897	532
234.238	1224
244.566	854
254.878	462
265.178	302
275.463	280
285.734	346
295.992	628
306.236	436
316.467	358
326.684	370
336.887	372
347.075	338
357.251	346
367.413	320
377.562	296
387.697	238
397.819	236
407.926	272
418.02	364
428.101	222
438.169	196
448.223	162
458.264	174
468.291	206
478.306	372
488.307	460
498.294	246
508.269	244
518.23	314
528.177	370
538.113	720
548.034	428
557.942	504
567.838	2518
577.72	1564
587.589	566
597.446	454
607.289	230
617.119	210
626.936	262
636.741	316
646.533	238
656.313	200
666.078	186
675.831	148
685.571	166
695.299	164
705.014	182
714.716	222
724.406	200
734.082	204
743.746	270
753.398	278
763.037	192
772.664	192
782.278	232
791.879	192
801.467	186
811.044	196
820.608	260
830.16	730
839.699	406
849.226	272
858.741	222
868.243	202
877.731	210
887.209	162
896.674	174
906.128	194
915.569	186
924.997	192
934.414	186
943.818	252
953.211	530
962.59	868
971.958	418
981.314	242
990.659	242
999.99	194
1009.31	202
1018.62	222
1027.91	244
1037.2	278
1046.47	214
1055.73	208
1064.98	196
1074.22	196
1083.44	186
1092.65	202
1101.86	242
1111.05	758
1120.22	386
1129.39	276
1138.54	226
1147.69	222
1156.82	240
1165.94	274
1175.05	276
1184.14	542
1193.23	414
1202.3	428
1211.36	302
1220.41	240
1229.45	350
1238.48	238
1247.5	248
1256.5	222
1265.49	228
1274.48	262
1283.45	368
1292.41	472
1301.36	1540
1310.29	1320
1319.22	558
1328.13	464
1337.04	360
1345.93	376
1354.81	362
1363.68	302
1372.54	536
1381.38	1030
1390.22	412
1399.05	274
1407.86	276
1416.66	312
1425.46	402
1434.24	472
1443.01	496
1451.77	388
1460.52	370
1469.25	352
1477.98	348
1486.7	306
1495.4	282
1504.1	270
1512.78	282
1521.45	256
1530.11	272
1538.76	276
1547.41	288
1556.03	280
1564.65	302
1573.26	334
1581.86	468
1590.45	778
1599.02	1336
1607.59	1262
1616.14	744
1624.69	394
1633.22	284
1641.75	242
1650.26	256
1658.76	230
1667.26	222
1675.74	226
1684.21	212
1692.67	242
1701.12	238
1709.56	228
1717.99	218
1726.41	218
1734.82	208
1743.22	204
1751.61	210
1759.99	202
1768.36	204
1776.71	212
1785.06	218
1793.4	198
1801.73	212
1810.04	208
1818.35	208
1826.65	206
1834.94	208
1843.21	210
1851.48	220
1859.74	194
1867.98	210
1876.22	206
1884.45	204
1892.67	206
1900.87	198
1909.07	204
1917.26	224
1925.43	212
1933.6	216
1941.76	204
1949.91	202
1958.05	228
1966.17	204
1974.29	220
1982.4	214
1990.5	198
1998.59	230
2006.67	192
2014.74	202
2022.8	224
2030.85	218
2038.89	200
2046.92	214
2054.94	196
2062.95	230
2070.96	190
2078.95	204
2086.93	212
2094.91	210
2102.87	216
2110.83	222
2118.77	204
2126.71	196
2134.63	222
2142.55	206
2150.46	216
2158.35	230
2166.24	216
2174.12	208
2181.99	222
2189.85	222
2197.7	194
2205.55	210
2213.38	224
2221.2	230
2229.02	218
2236.82	206
2244.62	216
2252.4	226
2260.18	208
2267.95	216
2275.71	202
2283.46	222
2291.2	216
2298.93	216
2306.65	208
2314.37	230
2322.07	244
2329.77	220
2337.45	218
2345.13	234
2352.8	216
2360.46	204
2368.11	220
2375.75	216
2383.38	210
2391.01	220
2398.62	218
2406.23	218
2413.82	210
2421.41	198
2428.99	206
2436.56	204
2444.12	210
2449.79	208

File: ps-ppo-7jan25-0,0000-map2_Y10_X06.txt
182.393	638
192.79	566
203.174	492
213.542	460
223.897	556
234.238	1222
244.566	862
254.878	464
265.178	302
275.463	248
285.734	360
295.992	570
306.236	452
316.467	368
326.684	350
336.887	370
347.075	358
357.251	346
367.413	308
377.562	316
387.697	240
397.819	210
407.926	260
418.02	330
428.101	242
438.169	184
448.223	162
458.264	168
468.291	226
478.306	392
488.307	444
498.294	232
508.269	248
518.23	286
528.177	376
538.113	742
548.034	422
557.942	484
567.838	2562
577.72	1518
587.589	568
597.446	440
607.289	242
617.119	210
626.936	262
636.741	302
646.533	258
656.313	196
666.078	178
675.831	154
685.571	172
695.299	160
705.014	180
714.716	236
724.406	190
734.082	196
743.746	266
753.398	284
763.037	190
772.664	190
782.278	202
791.879	186
801.467	186
811.044	208
820.608	230
830.16	764
839.699	408
849.226	270
858.741	218
868.243	218
877.731	182
887.209	190
896.674	178
906.128	188
915.569	166
924.997	184
934.414	204
943.818	256
953.211	508
962.59	878
971.958	458
981.314	238
990.659	212
999.99	200
1009.31	206
1018.62	216
1027.91	262
1037.2	272
1046.47	244
1055.73	196
1064.98	210
1074.22	200
1083.44	210
1092.65	212
1101.86	244
1111.05	784
1120.22	356
1129.39	260
1138.54	220
1147.69	228
1156.82	238
1165.94	282
1175.05	264
1184.14	568
1193.23	430
1202.3	454
1211.36	276
1220.41	222
1229.45	318
1238.48	250
1247.5	212
1256.5	216
1265.49	236
1274.48	258
1283.45	338
1292.41	468
1301.36	1484
1310.29	1332
1319.22	514
1328.13	430
1337.04	318
1345.93	354
1354.81	360
1363.68	294
1372.54	514
1381.38	994
1390.22	400
1399.05	272
1407.86	280
1416.66	338
1425.46	400
1434.24	464
1443.01	438
1451.77	432
1460.52	384
1469.25	366
1477.98	338
1486.7	302
1495.4	306
1504.1	284
1512.78	264
1521.45	264
1530.11	270
1538.76	268
1547.41	274
1556.03	296
1564.65	304
1573.26	326
1581.86	448
1590.45	752
1599.02	1336
1607.59	1204
1616.14	728
1624.69	410
1633.22	284
1641.75	250
1650.26	260
1658.76	234
1667.26	218
1675.74	222
1684.21	236
1692.67	250
1701.12	254
1709.56	238
1717.99	228
1726.41	224
1734.82	214
1743.22	214
1751.61	196
1759.99	200
1768.36	210
1776.71	220
1785.06	214
1793.4	214
1801.73	210
1810.04	208
1818.35	214
1826.65	212
1834.94	210
1843.21	220
1851.48	216
1859.74	216
1867.98	226
1876.22	206
1884.45	216
1892.67	202
1900.87	220
1909.07	212
1917.26	210
1925.43	214
1933.6	206
1941.76	214
1949.91	204
1958.05	206
1966.17	214
1974.29	204
1982.4	210
1990.5	204
1998.59	200
2006.67	214
2014.74	216
2022.8	204
2030.85	206
2038.89	220
2046.92	208
2054.94	198
2062.95	210
2070.96	210
2078.95	208
2086.93	200
2094.91	194
2102.87	214
2110.83	216
2118.77	214
2126.71	218
2134.63	216
2142.55	208
2150.46	220
2158.35	228
2166.24	208
2174.12	214
2181.99	218
2189.85	204
2197.7	196
2205.55	208
2213.38	216
2221.2	200
2229.02	212
2236.82	218
2244.62	216
2252.4	220
2260.18	220
2267.95	222
2275.71	222
2283.46	208
2291.2	224
2298.93	218
2306.65	230
2314.37	220
2322.07	238
2329.77	236
2337.45	216
2345.13	194
2352.8	216
2360.46	220
2368.11	216
2375.75	214
2383.38	208
2391.01	222
2398.62	212
2406.23	224
2413.82	230
2421.41	234
2428.99	214
2436.56	214
2444.12	206
2449.79	224