Folder: NRC_SU25_Spectral_Classification/Jesse_Dataset_v2/Pure Raman/Polypropylene oxide/633nm

Note: README.md
# Spectral Classification Project

This repository contains implementations of various machine learning and deep learning methods for the **one-shot classification of chemical spectra**. The goal is to identify the **chemical identity** of an unknown **Raman spectrum** by finding the best match from a reference library of known spectra.

The project explores and compares **four distinct approaches**, inspired by the methods described in *[Halas et al., ACS Nano, 2023](https://doi.org/10.1021/acsnano.3c05510)*.


---

## Core Concept: Spectral Identification

The fundamental problem is to take a **high-dimensional spectrum** from an unknown sample and accurately identify it by comparing it against a **library of known spectra**. Each method in this repository tackles this problem through a different **feature extraction** and **similarity matching** strategy.

---

## Included Implementations

This repository includes four primary methods for spectral classification:

- `CaPSim` (Characteristic Peak Similarity)
- `CaPSim` with `k-NN` Classifier
- `PCA` (Principal Component Analysis) Classifier
- `Siamese Network` for One-Shot Learning

All methods assume the data is provided in **CSV format**, with one file for the **reference library** and one for the **query spectra**. The **last column** in each file should be named **`Label`** and contain the chemical identifier.

---

### 1. CaPSim (Characteristic Peak Similarity)
**Script:** `CaPSim.py`  
**Approach:** Local peak-based dot-product similarity

**Concept:**  
This method directly implements the approach described in the Halas et al. paper. It assumes that key information in a spectrum is concentrated in a few discrete **characteristic peaks (CPs)**.

**Workflow:**
- **Preprocessing:** Baseline correction and L2 normalization
- **Feature Definition:** Identify most frequent or intense peaks per class → class-specific CPs
- **Feature Extraction:** Extract maximum intensity around CPs for each query
- **Similarity Matching:** Compute mean dot-product (CaPSim score); assign query to class with highest score

---

### 2. CaPSim with k-NN Classifier
**Script:** `CaPSim_kNN.py`  
**Approach:** Local peak-based features with supervised classification

**Concept:**  
An extension of CaPSim that uses the same CP-based features but replaces dot-product similarity with a learned `k-Nearest Neighbors` classifier.

**Workflow:**
- **Preprocessing:** Same as baseline CaPSim
- **Feature Definition:** Global CP set = union of all class CPs
- **Feature Extraction:** Fixed-length feature vectors for all reference spectra
- **Training:** Train a `k-NN` model using cosine distance
- **Classification:** Predict query identity using trained model

---

### 3. PCA (Principal Component Analysis) Classifier
**Script:** `PCA_Classification.py`  
**Approach:** Global shape-based classification in PCA space

**Concept:**  
A benchmark method that uses global spectral shape via PCA. It reduces the dimensionality of the spe

File: ps-ppo-7jan25-0,0000-map2_Y00_X00.txt
182.393	782
192.79	660
203.174	612
213.542	550
223.897	702
234.238	1384
244.566	962
254.878	574
265.178	402
275.463	348
285.734	472
295.992	704
306.236	544
316.467	438
326.684	444
336.887	474
347.075	430
357.251	440
367.413	420
377.562	394
387.697	330
397.819	318
407.926	376
418.02	436
428.101	304
438.169	238
448.223	238
458.264	270
468.291	318
478.306	490
488.307	536
498.294	314
508.269	346
518.23	384
528.177	486
538.113	908
548.034	540
557.942	582
567.838	2890
577.72	1636
587.589	700
597.446	514
607.289	332
617.119	320
626.936	350
636.741	392
646.533	328
656.313	306
666.078	258
675.831	258
685.571	268
695.299	248
705.014	262
714.716	324
724.406	292
734.082	292
743.746	368
753.398	380
763.037	296
772.664	308
782.278	300
791.879	274
801.467	282
811.044	286
820.608	322
830.16	890
839.699	512
849.226	332
858.741	328
868.243	280
877.731	278
887.209	278
896.674	248
906.128	264
915.569	284
924.997	282
934.414	302
943.818	338
953.211	660
962.59	1000
971.958	550
981.314	344
990.659	312
999.99	296
1009.31	298
1018.62	328
1027.91	356
1037.2	362
1046.47	320
1055.73	302
1064.98	300
1074.22	290
1083.44	300
1092.65	308
1101.86	332
1111.05	942
1120.22	464
1129.39	350
1138.54	350
1147.69	316
1156.82	344
1165.94	362
1175.05	390
1184.14	692
1193.23	570
1202.3	566
1211.36	420
1220.41	350
1229.45	440
1238.48	352
1247.5	316
1256.5	332
1265.49	340
1274.48	386
1283.45	458
1292.41	612
1301.36	1770
1310.29	1460
1319.22	652
1328.13	560
1337.04	460
1345.93	472
1354.81	460
1363.68	422
1372.54	652
1381.38	1140
1390.22	498
1399.05	376
1407.86	374
1416.66	406
1425.46	510
1434.24	572
1443.01	636
1451.77	504
1460.52	466
1469.25	450
1477.98	470
1486.7	406
1495.4	386
1504.1	382
1512.78	396
1521.45	396
1530.11	394
1538.76	382
1547.41	360
1556.03	392
1564.65	402
1573.26	440
1581.86	552
1590.45	892
1599.02	1526
1607.59	1378
1616.14	842
1624.69	502
1633.22	382
1641.75	378
1650.26	354
1658.76	340
1667.26	334
1675.74	316
1684.21	356
1692.67	330
1701.12	324
1709.56	354
1717.99	324
1726.41	316
1734.82	288
1743.22	304
1751.61	326
1759.99	288
1768.36	306
1776.71	302
1785.06	298
1793.4	290
1801.73	290
1810.04	292
1818.35	274
1826.65	282
1834.94	282
1843.21	286
1851.48	292
1859.74	296
1867.98	286
1876.22	284
1884.45	312
1892.67	294
1900.87	306
1909.07	296
1917.26	306
1925.43	292
1933.6	318
1941.76	306
1949.91	298
1958.05	304
1966.17	294
1974.29	274
1982.4	288
1990.5	296
1998.59	314
2006.67	286
2014.74	292
2022.8	304
2030.85	288
2038.89	306
2046.92	282
2054.94	302
2062.95	290
2070.96	300
2078.95	278
2086.93	280
2094.91	294
2102.87	294
2110.83	276
2118.77	286
2126.71	284
2134.63	302
2142.55	282
2150.46	290
2158.35	262
2166.24	284
2174.12	290
2181.99	274
2189.85	294
2197.7	292
2205.55	276
2213.38	288
2221.2	276
2229.02	262
2236.82	288
2244.62	276
2252.4	276
2260.18	270
2267.95	290
2275.71	268
2283.46	290
2291.2	272
2298.93	282
2306.65	268
2314.37	276
2322.07	298
2329.77	266
2337.45	278
2345.13	282
2352.8	262
2360.46	268
2368.11	250
2375.75	268
2383.38	264
2391.01	288
2398.62	286
2406.23	286
2413.82	264
2421.41	260
2428.99	280
2436.56	260
2444.12	268
2449.79	274

File: ps-ppo-7jan25-0,0000-map2_Y00_X03.txt
182.393	770
192.79	638
203.174	560
213.542	494
223.897	630
234.238	1316
244.566	924
254.878	510
265.178	348
275.463	310
285.734	432
295.992	690
306.236	476
316.467	396
326.684	424
336.887	454
347.075	360
357.251	384
367.413	348
377.562	356
387.697	268
397.819	272
407.926	332
418.02	402
428.101	258
438.169	212
448.223	200
458.264	214
468.291	250
478.306	418
488.307	510
498.294	264
508.269	302
518.23	362
528.177	436
538.113	822
548.034	484
557.942	524
567.838	2842
577.72	1608
587.589	654
597.446	494
607.289	260
617.119	244
626.936	308
636.741	342
646.533	290
656.313	264
666.078	210
675.831	194
685.571	210
695.299	196
705.014	220
714.716	274
724.406	240
734.082	240
743.746	306
753.398	360
763.037	228
772.664	234
782.278	264
791.879	218
801.467	232
811.044	238
820.608	268
830.16	880
839.699	470
849.226	322
858.741	276
868.243	236
877.731	228
887.209	232
896.674	216
906.128	208
915.569	224
924.997	216
934.414	236
943.818	274
953.211	594
962.59	956
971.958	492
981.314	278
990.659	272
999.99	248
1009.31	230
1018.62	262
1027.91	298
1037.2	326
1046.47	270
1055.73	258
1064.98	240
1074.22	242
1083.44	234
1092.65	262
1101.86	282
1111.05	890
1120.22	418
1129.39	308
1138.54	282
1147.69	286
1156.82	274
1165.94	318
1175.05	320
1184.14	644
1193.23	484
1202.3	522
1211.36	328
1220.41	282
1229.45	398
1238.48	286
1247.5	274
1256.5	266
1265.49	280
1274.48	334
1283.45	400
1292.41	568
1301.36	1664
1310.29	1396
1319.22	594
1328.13	500
1337.04	398
1345.93	404
1354.81	374
1363.68	354
1372.54	588
1381.38	1098
1390.22	444
1399.05	322
1407.86	304
1416.66	368
1425.46	470
1434.24	530
1443.01	540
1451.77	434
1460.52	448
1469.25	416
1477.98	410
1486.7	346
1495.4	314
1504.1	324
1512.78	308
1521.45	312
1530.11	302
1538.76	304
1547.41	348
1556.03	346
1564.65	340
1573.26	380
1581.86	516
1590.45	832
1599.02	1408
1607.59	1290
1616.14	776
1624.69	468
1633.22	326
1641.75	310
1650.26	284
1658.76	302
1667.26	254
1675.74	282
1684.21	262
1692.67	306
1701.12	300
1709.56	276
1717.99	266
1726.41	258
1734.82	256
1743.22	244
1751.61	254
1759.99	256
1768.36	260
1776.71	262
1785.06	246
1793.4	272
1801.73	248
1810.04	258
1818.35	262
1826.65	244
1834.94	242
1843.21	262
1851.48	270
1859.74	262
1867.98	242
1876.22	250
1884.45	254
1892.67	252
1900.87	250
1909.07	256
1917.26	248
1925.43	262
1933.6	230
1941.76	244
1949.91	242
1958.05	246
1966.17	244
1974.29	232
1982.4	232
1990.5	250
1998.59	248
2006.67	234
2014.74	250
2022.8	234
2030.85	254
2038.89	254
2046.92	256
2054.94	248
2062.95	234
2070.96	246
2078.95	232
2086.93	240
2094.91	242
2102.87	238
2110.83	238
2118.77	238
2126.71	248
2134.63	242
2142.55	256
2150.46	256
2158.35	242
2166.24	246
2174.12	250
2181.99	240
2189.85	250
2197.7	244
2205.55	242
2213.38	234
2221.2	236
2229.02	238
2236.82	256
2244.62	248
2252.4	240
2260.18	244
2267.95	234
2275.71	240
2283.46	232
2291.2	244
2298.93	254
2306.65	236
2314.37	260
2322.07	244
2329.77	248
2337.45	248
2345.13	246
2352.8	230
2360.46	244
2368.11	232
2375.75	246
2383.38	232
2391.01	266
2398.62	256
2406.23	254
2413.82	244
2421.41	248
2428.99	226
2436.56	228
2444.12	234
2449.79	238

File: ps-ppo-7jan25-0,0000-map2_Y00_X07.txt
182.393	744
192.79	666
203.174	542
213.542	492
223.897	636
234.238	1288
244.566	950
254.878	530
265.178	370
275.463	318
285.734	416
295.992	668
306.236	514
316.467	426
326.684	410
336.887	438
347.075	388
357.251	390
367.413	386
377.562	350
387.697	268
397.819	280
407.926	310
418.02	384
428.101	258
438.169	218
448.223	204
458.264	204
468.291	274
478.306	438
488.307	502
498.294	280
508.269	308
518.23	350
528.177	424
538.113	852
548.034	508
557.942	564
567.838	2830
577.72	1664
587.589	654
597.446	500
607.289	314
617.119	264
626.936	322
636.741	356
646.533	272
656.313	232
666.078	218
675.831	190
685.571	206
695.299	198
705.014	226
714.716	300
724.406	248
734.082	256
743.746	336
753.398	338
763.037	238
772.664	240
782.278	278
791.879	228
801.467	234
811.044	244
820.608	272
830.16	816
839.699	444
849.226	316
858.741	260
868.243	250
877.731	220
887.209	216
896.674	214
906.128	230
915.569	224
924.997	212
934.414	218
943.818	288
953.211	612
962.59	910
971.958	512
981.314	300
990.659	266
999.99	250
1009.31	244
1018.62	268
1027.91	314
1037.2	344
1046.47	288
1055.73	258
1064.98	236
1074.22	238
1083.44	250
1092.65	258
1101.86	288
1111.05	880
1120.22	440
1129.39	306
1138.54	304
1147.69	276
1156.82	304
1165.94	310
1175.05	326
1184.14	582
1193.23	510
1202.3	548
1211.36	346
1220.41	298
1229.45	394
1238.48	316
1247.5	238
1256.5	282
1265.49	280
1274.48	316
1283.45	416
1292.41	572
1301.36	1672
1310.29	1348
1319.22	594
1328.13	488
1337.04	384
1345.93	432
1354.81	412
1363.68	338
1372.54	564
1381.38	1106
1390.22	436
1399.05	316
1407.86	318
1416.66	396
1425.46	460
1434.24	530
1443.01	556
1451.77	442
1460.52	422
1469.25	406
1477.98	390
1486.7	336
1495.4	326
1504.1	346
1512.78	314
1521.45	314
1530.11	316
1538.76	328
1547.41	326
1556.03	332
1564.65	358
1573.26	392
1581.86	508
1590.45	800
1599.02	1494
1607.59	1358
1616.14	808
1624.69	452
1633.22	364
1641.75	296
1650.26	278
1658.76	296
1667.26	290
1675.74	290
1684.21	286
1692.67	298
1701.12	298
1709.56	274
1717.99	274
1726.41	262
1734.82	268
1743.22	260
1751.61	252
1759.99	264
1768.36	276
1776.71	246
1785.06	262
1793.4	242
1801.73	246
1810.04	240
1818.35	280
1826.65	262
1834.94	252
1843.21	240
1851.48	278
1859.74	276
1867.98	250
1876.22	246
1884.45	258
1892.67	254
1900.87	256
1909.07	254
1917.26	262
1925.43	266
1933.6	256
1941.76	262
1949.91	244
1958.05	254
1966.17	238
1974.29	240
1982.4	258
1990.5	258
1998.59	246
2006.67	254
2014.74	270
2022.8	268
2030.85	270
2038.89	254
2046.92	236
2054.94	246
2062.95	264
2070.96	280
2078.95	252
2086.93	238
2094.91	254
2102.87	252
2110.83	236
2118.77	242
2126.71	250
2134.63	246
2142.55	254
2150.46	256
2158.35	258
2166.24	264
2174.12	248
2181.99	244
2189.85	260
2197.7	252
2205.55	234
2213.38	246
2221.2	246
2229.02	256
2236.82	264
2244.62	238
2252.4	270
2260.18	254
2267.95	260
2275.71	248
2283.46	244
2291.2	252
2298.93	244
2306.65	266
2314.37	254
2322.07	254
2329.77	240
2337.45	244
2345.13	250
2352.8	250
2360.46	214
2368.11	246
2375.75	234
2383.38	262
2391.01	254
2398.62	234
2406.23	262
2413.82	242
2421.41	232
2428.99	256
2436.56	246
2444.12	240
2449.79	248

File: ps-ppo-7jan25-0,0000-map2_Y00_X09.txt
182.393	756
192.79	636
203.174	552
213.542	536
223.897	620
234.238	1328
244.566	920
254.878	488
265.178	354
275.463	314
285.734	458
295.992	672
306.236	514
316.467	434
326.684	406
336.887	442
347.075	378
357.251	390
367.413	392
377.562	364
387.697	300
397.819	256
407.926	302
418.02	382
428.101	290
438.169	246
448.223	238
458.264	220
468.291	286
478.306	434
488.307	500
498.294	266
508.269	318
518.23	378
528.177	454
538.113	850
548.034	508
557.942	600
567.838	2866
577.72	1512
587.589	638
597.446	496
607.289	274
617.119	258
626.936	296
636.741	364
646.533	292
656.313	240
666.078	222
675.831	210
685.571	206
695.299	210
705.014	218
714.716	278
724.406	242
734.082	272
743.746	312
753.398	336
763.037	250
772.664	236
782.278	294
791.879	252
801.467	240
811.044	266
820.608	296
830.16	872
839.699	440
849.226	300
858.741	300
868.243	244
877.731	242
887.209	240
896.674	246
906.128	208
915.569	214
924.997	242
934.414	240
943.818	296
953.211	612
962.59	944
971.958	530
981.314	286
990.659	290
999.99	236
1009.31	248
1018.62	276
1027.91	322
1037.2	334
1046.47	284
1055.73	240
1064.98	262
1074.22	260
1083.44	256
1092.65	254
1101.86	310
1111.05	890
1120.22	426
1129.39	314
1138.54	302
1147.69	272
1156.82	296
1165.94	328
1175.05	320
1184.14	638
1193.23	488
1202.3	512
1211.36	330
1220.41	282
1229.45	396
1238.48	302
1247.5	280
1256.5	274
1265.49	294
1274.48	340
1283.45	430
1292.41	560
1301.36	1682
1310.29	1372
1319.22	558
1328.13	524
1337.04	386
1345.93	410
1354.81	424
1363.68	372
1372.54	614
1381.38	1104
1390.22	462
1399.05	332
1407.86	342
1416.66	388
1425.46	450
1434.24	506
1443.01	574
1451.77	438
1460.52	428
1469.25	426
1477.98	408
1486.7	382
1495.4	342
1504.1	344
1512.78	324
1521.45	346
1530.11	324
1538.76	340
1547.41	350
1556.03	366
1564.65	348
1573.26	370
1581.86	486
1590.45	802
1599.02	1402
1607.59	1356
1616.14	774
1624.69	458
1633.22	344
1641.75	298
1650.26	282
1658.76	294
1667.26	286
1675.74	286
1684.21	282
1692.67	312
1701.12	318
1709.56	290
1717.99	290
1726.41	270
1734.82	266
1743.22	278
1751.61	276
1759.99	264
1768.36	260
1776.71	268
1785.06	264
1793.4	274
1801.73	264
1810.04	270
1818.35	258
1826.65	290
1834.94	254
1843.21	252
1851.48	264
1859.74	244
1867.98	260
1876.22	262
1884.45	284
1892.67	266
1900.87	260
1909.07	272
1917.26	278
1925.43	260
1933.6	264
1941.76	262
1949.91	250
1958.05	248
1966.17	264
1974.29	244
1982.4	268
1990.5	260
1998.59	280
2006.67	240
2014.74	240
2022.8	248
2030.85	266
2038.89	260
2046.92	254
2054.94	252
2062.95	242
2070.96	248
2078.95	270
2086.93	242
2094.91	276
2102.87	264
2110.83	258
2118.77	258
2126.71	248
2134.63	244
2142.55	274
2150.46	260
2158.35	248
2166.24	246
2174.12	262
2181.99	256
2189.85	258
2197.7	256
2205.55	260
2213.38	238
2221.2	246
2229.02	252
2236.82	228
2244.62	240
2252.4	254
2260.18	246
2267.95	262
2275.71	242
2283.46	262
2291.2	244
2298.93	262
2306.65	246
2314.37	264
2322.07	258
2329.77	248
2337.45	250
2345.13	244
2352.8	246
2360.46	236
2368.11	244
2375.75	262
2383.38	262
2391.01	246
2398.62	256
2406.23	264
2413.82	260
2421.41	230
2428.99	234
2436.56	248
2444.12	252
2449.79	242

File: ps-ppo-7jan25-0,0000-map2_Y00_X10.txt
182.393	720
192.79	658
203.174	560
213.542	510
223.897	664
234.238	1364
244.566	960
254.878	522
265.178	376
275.463	330
285.734	408
295.992	680
306.236	508
316.467	418
326.684	428
336.887	454
347.075	384
357.251	416
367.413	370
377.562	358
387.697	296
397.819	298
407.926	318
418.02	392
428.101	274
438.169	246
448.223	216
458.264	234
468.291	282
478.306	460
488.307	490
498.294	268
508.269	296
518.23	342
528.177	448
538.113	850
548.034	478
557.942	590
567.838	2882
577.72	1584
587.589	676
597.446	514
607.289	272
617.119	268
626.936	330
636.741	378
646.533	308
656.313	242
666.078	204
675.831	212
685.571	206
695.299	214
705.014	238
714.716	284
724.406	250
734.082	270
743.746	320
753.398	344
763.037	258
772.664	256
782.278	272
791.879	246
801.467	232
811.044	272
820.608	300
830.16	882
839.699	444
849.226	306
858.741	302
868.243	264
877.731	244
887.209	230
896.674	244
906.128	248
915.569	214
924.997	238
934.414	258
943.818	306
953.211	626
962.59	972
971.958	504
981.314	302
990.659	282
999.99	264
1009.31	252
1018.62	290
1027.91	310
1037.2	346
1046.47	284
1055.73	276
1064.98	274
1074.22	242
1083.44	256
1092.65	272
1101.86	290
1111.05	890
1120.22	434
1129.39	298
1138.54	310
1147.69	294
1156.82	306
1165.94	334
1175.05	352
1184.14	646
1193.23	488
1202.3	550
1211.36	380
1220.41	316
1229.45	398
1238.48	292
1247.5	280
1256.5	276
1265.49	310
1274.48	298
1283.45	402
1292.41	564
1301.36	1672
1310.29	1420
1319.22	598
1328.13	514
1337.04	372
1345.93	404
1354.81	400
1363.68	372
1372.54	616
1381.38	1092
1390.22	440
1399.05	318
1407.86	318
1416.66	396
1425.46	470
1434.24	520
1443.01	556
1451.77	442
1460.52	446
1469.25	398
1477.98	436
1486.7	366
1495.4	344
1504.1	340
1512.78	344
1521.45	330
1530.11	324
1538.76	322
1547.41	336
1556.03	338
1564.65	350
1573.26	396
1581.86	548
1590.45	828
1599.02	1482
1607.59	1366
1616.14	804
1624.69	456
1633.22	348
1641.75	346
1650.26	286
1658.76	272
1667.26	272
1675.74	258
1684.21	300
1692.67	292
1701.12	300
1709.56	308
1717.99	298
1726.41	262
1734.82	268
1743.22	278
1751.61	254
1759.99	260
1768.36	266
1776.71	258
1785.06	280
1793.4	264
1801.73	274
1810.04	262
1818.35	262
1826.65	272
1834.94	264
1843.21	246
1851.48	262
1859.74	278
1867.98	258
1876.22	270
1884.45	256
1892.67	268
1900.87	278
1909.07	268
1917.26	286
1925.43	246
1933.6	256
1941.76	256
1949.91	242
1958.05	262
1966.17	250
1974.29	252
1982.4	264
1990.5	288
1998.59	262
2006.67	276
2014.74	236
2022.8	260
2030.85	254
2038.89	252
2046.92	240
2054.94	266
2062.95	268
2070.96	256
2078.95	264
2086.93	260
2094.91	264
2102.87	250
2110.83	232
2118.77	266
2126.71	236
2134.63	268
2142.55	266
2150.46	270
2158.35	260
2166.24	244
2174.12	240
2181.99	278
2189.85	256
2197.7	244
2205.55	244
2213.38	254
2221.2	266
2229.02	252
2236.82	238
2244.62	270
2252.4	236
2260.18	270
2267.95	252
2275.71	234
2283.46	228
2291.2	254
2298.93	240
2306.65	240
2314.37	226
2322.07	266
2329.77	268
2337.45	240
2345.13	258
2352.8	258
2360.46	254
2368.11	252
2375.75	250
2383.38	244
2391.01	256
2398.62	266
2406.23	272
2413.82	242
2421.41	250
2428.99	234
2436.56	250
2444.12	232
2449.79	230

File: ps-ppo-7jan25-0,0000-map2_Y01_X00.txt
182.393	758
192.79	630
203.174	560
213.542	506
223.897	662
234.238	1316
244.566	938
254.878	532
265.178	330
275.463	310
285.734	438
295.992	696
306.236	498
316.467	434
326.684	440
336.887	436
347.075	392
357.251	412
367.413	380
377.562	356
387.697	284
397.819	302
407.926	342
418.02	398
428.101	278
438.169	226
448.223	214
458.264	234
468.291	274
478.306	456
488.307	508
498.294	278
508.269	312
518.23	354
528.177	432
538.113	840
548.034	504
557.942	560
567.838	2798
577.72	1626
587.589	656
597.446	516
607.289	302
617.119	254
626.936	318
636.741	376
646.533	272
656.313	234
666.078	218
675.831	204
685.571	228
695.299	220
705.014	242
714.716	308
724.406	240
734.082	248
743.746	326
753.398	336
763.037	232
772.664	240
782.278	268
791.879	254
801.467	242
811.044	246
820.608	294
830.16	872
839.699	452
849.226	316
858.741	286
868.243	278
877.731	238
887.209	220
896.674	238
906.128	216
915.569	218
924.997	226
934.414	272
943.818	314
953.211	602
962.59	968
971.958	506
981.314	290
990.659	296
999.99	250
1009.31	266
1018.62	280
1027.91	322
1037.2	338
1046.47	284
1055.73	254
1064.98	256
1074.22	250
1083.44	252
1092.65	270
1101.86	318
1111.05	880
1120.22	450
1129.39	342
1138.54	306
1147.69	278
1156.82	306
1165.94	292
1175.05	340
1184.14	598
1193.23	476
1202.3	534
1211.36	336
1220.41	298
1229.45	422
1238.48	300
1247.5	284
1256.5	286
1265.49	310
1274.48	310
1283.45	412
1292.41	550
1301.36	1668
1310.29	1414
1319.22	602
1328.13	546
1337.04	390
1345.93	422
1354.81	408
1363.68	374
1372.54	570
1381.38	1078
1390.22	434
1399.05	318
1407.86	322
1416.66	398
1425.46	446
1434.24	504
1443.01	554
1451.77	488
1460.52	432
1469.25	430
1477.98	410
1486.7	390
1495.4	352
1504.1	328
1512.78	324
1521.45	302
1530.11	338
1538.76	316
1547.41	344
1556.03	330
1564.65	356
1573.26	416
1581.86	510
1590.45	844
1599.02	1440
1607.59	1312
1616.14	778
1624.69	474
1633.22	344
1641.75	296
1650.26	306
1658.76	286
1667.26	286
1675.74	276
1684.21	274
1692.67	306
1701.12	292
1709.56	274
1717.99	278
1726.41	282
1734.82	254
1743.22	260
1751.61	268
1759.99	246
1768.36	270
1776.71	242
1785.06	250
1793.4	262
1801.73	262
1810.04	270
1818.35	260
1826.65	248
1834.94	246
1843.21	268
1851.48	250
1859.74	246
1867.98	258
1876.22	258
1884.45	250
1892.67	242
1900.87	234
1909.07	244
1917.26	252
1925.43	270
1933.6	248
1941.76	244
1949.91	274
1958.05	260
1966.17	242
1974.29	266
1982.4	262
1990.5	248
1998.59	278
2006.67	278
2014.74	250
2022.8	280
2030.85	242
2038.89	260
2046.92	240
2054.94	244
2062.95	248
2070.96	262
2078.95	238
2086.93	262
2094.91	250
2102.87	246
2110.83	254
2118.77	254
2126.71	252
2134.63	236
2142.55	248
2150.46	240
2158.35	262
2166.24	244
2174.12	264
2181.99	250
2189.85	248
2197.7	238
2205.55	252
2213.38	226
2221.2	244
2229.02	230
2236.82	240
2244.62	260
2252.4	238
2260.18	246
2267.95	246
2275.71	232
2283.46	248
2291.2	232
2298.93	230
2306.65	246
2314.37	248
2322.07	266
2329.77	246
2337.45	258
2345.13	244
2352.8	246
2360.46	234
2368.11	264
2375.75	234
2383.38	240
2391.01	250
2398.62	256
2406.23	246
2413.82	250
2421.41	242
2428.99	236
2436.56	250
2444.12	230
2449.79	248

File: ps-ppo-7jan25-0,0000-map2_Y02_X01.txt
182.393	746
192.79	606
203.174	534
213.542	460
223.897	646
234.238	1272
244.566	930
254.878	486
265.178	322
275.463	308
285.734	388
295.992	634
306.236	486
316.467	396
326.684	386
336.887	418
347.075	380
357.251	398
367.413	340
377.562	336
387.697	288
397.819	248
407.926	310
418.02	376
428.101	240
438.169	208
448.223	194
458.264	188
468.291	256
478.306	396
488.307	462
498.294	272
508.269	276
518.23	332
528.177	402
538.113	818
548.034	474
557.942	544
567.838	2750
577.72	1608
587.589	612
597.446	472
607.289	276
617.119	242
626.936	290
636.741	352
646.533	270
656.313	220
666.078	198
675.831	184
685.571	202
695.299	168
705.014	202
714.716	276
724.406	236
734.082	226
743.746	278
753.398	324
763.037	224
772.664	224
782.278	228
791.879	214
801.467	198
811.044	218
820.608	258
830.16	820
839.699	404
849.226	294
858.741	268
868.243	214
877.731	210
887.209	210
896.674	186
906.128	198
915.569	194
924.997	208
934.414	214
943.818	258
953.211	596
962.59	886
971.958	468
981.314	266
990.659	244
999.99	226
1009.31	216
1018.62	242
1027.91	286
1037.2	288
1046.47	250
1055.73	242
1064.98	222
1074.22	220
1083.44	234
1092.65	242
1101.86	260
1111.05	898
1120.22	406
1129.39	288
1138.54	258
1147.69	248
1156.82	252
1165.94	284
1175.05	294
1184.14	566
1193.23	458
1202.3	498
1211.36	324
1220.41	248
1229.45	364
1238.48	260
1247.5	238
1256.5	236
1265.49	280
1274.48	304
1283.45	360
1292.41	534
1301.36	1632
1310.29	1368
1319.22	602
1328.13	492
1337.04	378
1345.93	382
1354.81	364
1363.68	316
1372.54	570
1381.38	1040
1390.22	418
1399.05	294
1407.86	298
1416.66	334
1425.46	446
1434.24	490
1443.01	524
1451.77	418
1460.52	408
1469.25	396
1477.98	412
1486.7	340
1495.4	278
1504.1	300
1512.78	282
1521.45	294
1530.11	294
1538.76	298
1547.41	318
1556.03	302
1564.65	306
1573.26	364
1581.86	446
1590.45	772
1599.02	1412
1607.59	1330
1616.14	756
1624.69	378
1633.22	310
1641.75	274
1650.26	282
1658.76	258
1667.26	254
1675.74	242
1684.21	256
1692.67	276
1701.12	252
1709.56	244
1717.99	266
1726.41	232
1734.82	226
1743.22	246
1751.61	240
1759.99	210
1768.36	240
1776.71	236
1785.06	220
1793.4	236
1801.73	204
1810.04	238
1818.35	208
1826.65	240
1834.94	224
1843.21	212
1851.48	224
1859.74	210
1867.98	212
1876.22	212
1884.45	216
1892.67	220
1900.87	214
1909.07	240
1917.26	198
1925.43	218
1933.6	222
1941.76	214
1949.91	220
1958.05	212
1966.17	240
1974.29	214
1982.4	234
1990.5	210
1998.59	226
2006.67	252
2014.74	218
2022.8	222
2030.85	212
2038.89	240
2046.92	228
2054.94	226
2062.95	222
2070.96	210
2078.95	220
2086.93	224
2094.91	218
2102.87	226
2110.83	208
2118.77	224
2126.71	246
2134.63	230
2142.55	222
2150.46	208
2158.35	236
2166.24	206
2174.12	210
2181.99	212
2189.85	228
2197.7	226
2205.55	212
2213.38	222
2221.2	216
2229.02	224
2236.82	210
2244.62	216
2252.4	236
2260.18	228
2267.95	224
2275.71	236
2283.46	226
2291.2	230
2298.93	222
2306.65	216
2314.37	232
2322.07	222
2329.77	222
2337.45	230
2345.13	224
2352.8	242
2360.46	232
2368.11	228
2375.75	222
2383.38	216
2391.01	230
2398.62	240
2406.23	220
2413.82	228
2421.41	222
2428.99	194
2436.56	224
2444.12	226
2449.79	202