Folder: NRC_SU25_Spectral_Classification/Jesse_Dataset_v2/Pure Raman/Polypropylene oxide/633nm (part 4)

File: ps-ppo-7jan25-0,0000-map2_Y05_X02.txt
182.393	696
192.79	610
203.174	500
213.542	460
223.897	630
234.238	1268
244.566	836
254.878	472
265.178	322
275.463	274
285.734	384
295.992	608
306.236	482
316.467	364
326.684	380
336.887	404
347.075	340
357.251	352
367.413	322
377.562	318
387.697	258
397.819	228
407.926	276
418.02	354
428.101	218
438.169	184
448.223	174
458.264	172
468.291	226
478.306	398
488.307	456
498.294	244
508.269	260
518.23	304
528.177	372
538.113	748
548.034	444
557.942	492
567.838	2706
577.72	1554
587.589	566
597.446	440
607.289	252
617.119	224
626.936	262
636.741	346
646.533	246
656.313	200
666.078	174
675.831	164
685.571	162
695.299	184
705.014	192
714.716	270
724.406	210
734.082	198
743.746	272
753.398	290
763.037	216
772.664	190
782.278	202
791.879	200
801.467	186
811.044	212
820.608	254
830.16	780
839.699	392
849.226	254
858.741	222
868.243	206
877.731	206
887.209	178
896.674	166
906.128	178
915.569	178
924.997	182
934.414	188
943.818	246
953.211	566
962.59	928
971.958	452
981.314	246
990.659	228
999.99	186
1009.31	194
1018.62	224
1027.91	264
1037.2	286
1046.47	232
1055.73	208
1064.98	196
1074.22	214
1083.44	202
1092.65	206
1101.86	244
1111.05	824
1120.22	386
1129.39	234
1138.54	238
1147.69	220
1156.82	242
1165.94	256
1175.05	286
1184.14	546
1193.23	452
1202.3	464
1211.36	310
1220.41	238
1229.45	354
1238.48	238
1247.5	238
1256.5	238
1265.49	252
1274.48	256
1283.45	364
1292.41	450
1301.36	1594
1310.29	1322
1319.22	540
1328.13	460
1337.04	344
1345.93	370
1354.81	364
1363.68	314
1372.54	566
1381.38	1034
1390.22	384
1399.05	282
1407.86	266
1416.66	310
1425.46	418
1434.24	460
1443.01	482
1451.77	412
1460.52	360
1469.25	364
1477.98	358
1486.7	320
1495.4	276
1504.1	278
1512.78	284
1521.45	266
1530.11	266
1538.76	258
1547.41	290
1556.03	284
1564.65	326
1573.26	330
1581.86	488
1590.45	760
1599.02	1372
1607.59	1290
1616.14	748
1624.69	392
1633.22	286
1641.75	260
1650.26	232
1658.76	234
1667.26	238
1675.74	216
1684.21	242
1692.67	252
1701.12	246
1709.56	248
1717.99	220
1726.41	210
1734.82	196
1743.22	222
1751.61	216
1759.99	208
1768.36	220
1776.71	234
1785.06	204
1793.4	200
1801.73	204
1810.04	214
1818.35	206
1826.65	194
1834.94	202
1843.21	218
1851.48	200
1859.74	212
1867.98	220
1876.22	218
1884.45	208
1892.67	208
1900.87	206
1909.07	218
1917.26	218
1925.43	222
1933.6	202
1941.76	214
1949.91	208
1958.05	202
1966.17	210
1974.29	206
1982.4	202
1990.5	206
1998.59	228
2006.67	208
2014.74	208
2022.8	204
2030.85	208
2038.89	204
2046.92	230
2054.94	210
2062.95	230
2070.96	214
2078.95	198
2086.93	210
2094.91	208
2102.87	204
2110.83	210
2118.77	216
2126.71	202
2134.63	210
2142.55	214
2150.46	198
2158.35	210
2166.24	192
2174.12	204
2181.99	208
2189.85	210
2197.7	188
2205.55	198
2213.38	206
2221.2	202
2229.02	210
2236.82	204
2244.62	196
2252.4	204
2260.18	208
2267.95	192
2275.71	210
2283.46	208
2291.2	214
2298.93	204
2306.65	210
2314.37	210
2322.07	212
2329.77	220
2337.45	208
2345.13	216
2352.8	218
2360.46	212
2368.11	204
2375.75	206
2383.38	196
2391.01	210
2398.62	224
2406.23	206
2413.82	224
2421.41	220
2428.99	194
2436.56	208
2444.12	210
2449.79	214

File: ps-ppo-7jan25-0,0000-map2_Y05_X03.txt
182.393	690
192.79	580
203.174	508
213.542	440
223.897	556
234.238	1230
244.566	896
254.878	474
265.178	310
275.463	284
285.734	376
295.992	624
306.236	432
316.467	360
326.684	354
336.887	390
347.075	354
357.251	344
367.413	338
377.562	318
387.697	222
397.819	222
407.926	264
418.02	338
428.101	232
438.169	186
448.223	164
458.264	174
468.291	236
478.306	386
488.307	442
498.294	248
508.269	266
518.23	296
528.177	382
538.113	780
548.034	454
557.942	478
567.838	2638
577.72	1510
587.589	590
597.446	450
607.289	228
617.119	192
626.936	258
636.741	334
646.533	240
656.313	192
666.078	176
675.831	152
685.571	170
695.299	172
705.014	168
714.716	214
724.406	200
734.082	198
743.746	284
753.398	284
763.037	202
772.664	196
782.278	208
791.879	206
801.467	194
811.044	186
820.608	222
830.16	788
839.699	372
849.226	272
858.741	214
868.243	206
877.731	196
887.209	176
896.674	170
906.128	168
915.569	180
924.997	176
934.414	200
943.818	254
953.211	550
962.59	860
971.958	454
981.314	242
990.659	234
999.99	202
1009.31	208
1018.62	206
1027.91	260
1037.2	284
1046.47	240
1055.73	204
1064.98	202
1074.22	192
1083.44	216
1092.65	204
1101.86	248
1111.05	826
1120.22	378
1129.39	250
1138.54	256
1147.69	232
1156.82	234
1165.94	256
1175.05	270
1184.14	594
1193.23	464
1202.3	460
1211.36	314
1220.41	264
1229.45	344
1238.48	256
1247.5	210
1256.5	240
1265.49	242
1274.48	266
1283.45	364
1292.41	502
1301.36	1596
1310.29	1350
1319.22	518
1328.13	462
1337.04	334
1345.93	350
1354.81	354
1363.68	322
1372.54	542
1381.38	1068
1390.22	384
1399.05	274
1407.86	266
1416.66	308
1425.46	406
1434.24	460
1443.01	468
1451.77	382
1460.52	390
1469.25	362
1477.98	354
1486.7	324
1495.4	282
1504.1	294
1512.78	280
1521.45	284
1530.11	264
1538.76	270
1547.41	276
1556.03	292
1564.65	294
1573.26	356
1581.86	484
1590.45	728
1599.02	1372
1607.59	1272
1616.14	702
1624.69	390
1633.22	292
1641.75	264
1650.26	260
1658.76	220
1667.26	238
1675.74	224
1684.21	254
1692.67	256
1701.12	230
1709.56	236
1717.99	246
1726.41	236
1734.82	202
1743.22	214
1751.61	220
1759.99	200
1768.36	218
1776.71	198
1785.06	198
1793.4	212
1801.73	206
1810.04	194
1818.35	198
1826.65	214
1834.94	198
1843.21	226
1851.48	200
1859.74	198
1867.98	224
1876.22	218
1884.45	214
1892.67	218
1900.87	212
1909.07	202
1917.26	218
1925.43	212
1933.6	206
1941.76	202
1949.91	200
1958.05	198
1966.17	214
1974.29	220
1982.4	214
1990.5	230
1998.59	216
2006.67	208
2014.74	206
2022.8	200
2030.85	196
2038.89	208
2046.92	216
2054.94	220
2062.95	210
2070.96	216
2078.95	208
2086.93	222
2094.91	218
2102.87	206
2110.83	218
2118.77	210
2126.71	236
2134.63	208
2142.55	208
2150.46	212
2158.35	208
2166.24	202
2174.12	212
2181.99	230
2189.85	204
2197.7	200
2205.55	186
2213.38	222
2221.2	198
2229.02	200
2236.82	204
2244.62	214
2252.4	220
2260.18	214
2267.95	222
2275.71	198
2283.46	212
2291.2	218
2298.93	206
2306.65	208
2314.37	212
2322.07	210
2329.77	232
2337.45	224
2345.13	214
2352.8	194
2360.46	206
2368.11	216
2375.75	224
2383.38	228
2391.01	238
2398.62	226
2406.23	204
2413.82	220
2421.41	216
2428.99	190
2436.56	214
2444.12	214
2449.79	210

File: ps-ppo-7jan25-0,0000-map2_Y05_X04.txt
182.393	702
192.79	614
203.174	522
213.542	460
223.897	564
234.238	1276
244.566	868
254.878	480
265.178	318
275.463	264
285.734	372
295.992	630
306.236	468
316.467	358
326.684	378
336.887	408
347.075	364
357.251	350
367.413	330
377.562	282
387.697	248
397.819	240
407.926	278
418.02	346
428.101	230
438.169	190
448.223	178
458.264	176
468.291	248
478.306	414
488.307	454
498.294	232
508.269	264
518.23	324
528.177	380
538.113	778
548.034	456
557.942	500
567.838	2706
577.72	1568
587.589	600
597.446	440
607.289	242
617.119	212
626.936	260
636.741	316
646.533	270
656.313	200
666.078	160
675.831	158
685.571	162
695.299	162
705.014	190
714.716	258
724.406	202
734.082	202
743.746	258
753.398	302
763.037	198
772.664	196
782.278	210
791.879	184
801.467	196
811.044	212
820.608	230
830.16	766
839.699	378
849.226	262
858.741	230
868.243	182
877.731	202
887.209	188
896.674	170
906.128	174
915.569	170
924.997	166
934.414	198
943.818	256
953.211	538
962.59	898
971.958	438
981.314	250
990.659	232
999.99	216
1009.31	192
1018.62	218
1027.91	280
1037.2	274
1046.47	210
1055.73	202
1064.98	188
1074.22	188
1083.44	194
1092.65	202
1101.86	250
1111.05	824
1120.22	358
1129.39	274
1138.54	252
1147.69	222
1156.82	256
1165.94	270
1175.05	262
1184.14	556
1193.23	434
1202.3	454
1211.36	304
1220.41	226
1229.45	366
1238.48	248
1247.5	208
1256.5	218
1265.49	250
1274.48	272
1283.45	366
1292.41	516
1301.36	1512
1310.29	1324
1319.22	536
1328.13	468
1337.04	326
1345.93	364
1354.81	356
1363.68	298
1372.54	540
1381.38	1038
1390.22	382
1399.05	262
1407.86	276
1416.66	330
1425.46	398
1434.24	458
1443.01	494
1451.77	410
1460.52	376
1469.25	338
1477.98	350
1486.7	292
1495.4	302
1504.1	284
1512.78	272
1521.45	254
1530.11	270
1538.76	274
1547.41	286
1556.03	268
1564.65	292
1573.26	332
1581.86	456
1590.45	794
1599.02	1332
1607.59	1294
1616.14	740
1624.69	386
1633.22	306
1641.75	260
1650.26	252
1658.76	256
1667.26	246
1675.74	218
1684.21	226
1692.67	224
1701.12	252
1709.56	230
1717.99	228
1726.41	214
1734.82	214
1743.22	206
1751.61	200
1759.99	220
1768.36	200
1776.71	202
1785.06	196
1793.4	184
1801.73	214
1810.04	222
1818.35	206
1826.65	200
1834.94	208
1843.21	200
1851.48	206
1859.74	190
1867.98	206
1876.22	192
1884.45	188
1892.67	210
1900.87	208
1909.07	192
1917.26	200
1925.43	224
1933.6	212
1941.76	202
1949.91	198
1958.05	196
1966.17	208
1974.29	202
1982.4	196
1990.5	210
1998.59	208
2006.67	208
2014.74	218
2022.8	204
2030.85	206
2038.89	194
2046.92	206
2054.94	196
2062.95	222
2070.96	214
2078.95	190
2086.93	208
2094.91	220
2102.87	220
2110.83	202
2118.77	196
2126.71	210
2134.63	196
2142.55	212
2150.46	206
2158.35	212
2166.24	202
2174.12	186
2181.99	210
2189.85	200
2197.7	200
2205.55	194
2213.38	192
2221.2	200
2229.02	204
2236.82	212
2244.62	202
2252.4	192
2260.18	198
2267.95	202
2275.71	204
2283.46	210
2291.2	202
2298.93	206
2306.65	222
2314.37	216
2322.07	214
2329.77	206
2337.45	196
2345.13	206
2352.8	216
2360.46	204
2368.11	200
2375.75	214
2383.38	220
2391.01	210
2398.62	216
2406.23	218
2413.82	200
2421.41	206
2428.99	216
2436.56	212
2444.12	180
2449.79	206

File: ps-ppo-7jan25-0,0000-map2_Y05_X05.txt
182.393	702
192.79	578
203.174	456
213.542	458
223.897	568
234.238	1260
244.566	842
254.878	462
265.178	306
275.463	268
285.734	358
295.992	630
306.236	458
316.467	352
326.684	332
336.887	386
347.075	338
357.251	332
367.413	300
377.562	312
387.697	236
397.819	192
407.926	260
418.02	326
428.101	208
438.169	166
448.223	168
458.264	168
468.291	204
478.306	404
488.307	434
498.294	214
508.269	242
518.23	276
528.177	382
538.113	744
548.034	420
557.942	486
567.838	2676
577.72	1568
587.589	592
597.446	468
607.289	212
617.119	208
626.936	244
636.741	310
646.533	212
656.313	186
666.078	162
675.831	152
685.571	156
695.299	152
705.014	164
714.716	220
724.406	182
734.082	184
743.746	244
753.398	256
763.037	164
772.664	176
782.278	200
791.879	190
801.467	182
811.044	192
820.608	210
830.16	788
839.699	382
849.226	244
858.741	240
868.243	200
877.731	160
887.209	160
896.674	162
906.128	150
915.569	168
924.997	178
934.414	186
943.818	236
953.211	518
962.59	852
971.958	430
981.314	228
990.659	194
999.99	192
1009.31	194
1018.62	214
1027.91	260
1037.2	258
1046.47	216
1055.73	200
1064.98	194
1074.22	182
1083.44	184
1092.65	178
1101.86	222
1111.05	836
1120.22	364
1129.39	228
1138.54	238
1147.69	196
1156.82	232
1165.94	254
1175.05	264
1184.14	554
1193.23	418
1202.3	428
1211.36	290
1220.41	226
1229.45	316
1238.48	238
1247.5	204
1256.5	220
1265.49	236
1274.48	254
1283.45	358
1292.41	474
1301.36	1528
1310.29	1310
1319.22	538
1328.13	438
1337.04	326
1345.93	358
1354.81	326
1363.68	292
1372.54	498
1381.38	986
1390.22	380
1399.05	258
1407.86	270
1416.66	304
1425.46	384
1434.24	422
1443.01	488
1451.77	388
1460.52	362
1469.25	352
1477.98	316
1486.7	298
1495.4	284
1504.1	264
1512.78	252
1521.45	272
1530.11	252
1538.76	268
1547.41	244
1556.03	286
1564.65	278
1573.26	324
1581.86	436
1590.45	742
1599.02	1324
1607.59	1326
1616.14	738
1624.69	372
1633.22	282
1641.75	242
1650.26	240
1658.76	232
1667.26	222
1675.74	230
1684.21	218
1692.67	216
1701.12	228
1709.56	222
1717.99	222
1726.41	224
1734.82	210
1743.22	188
1751.61	202
1759.99	210
1768.36	198
1776.71	192
1785.06	192
1793.4	208
1801.73	192
1810.04	206
1818.35	208
1826.65	194
1834.94	178
1843.21	198
1851.48	202
1859.74	200
1867.98	192
1876.22	186
1884.45	186
1892.67	214
1900.87	192
1909.07	194
1917.26	196
1925.43	192
1933.6	190
1941.76	210
1949.91	204
1958.05	192
1966.17	194
1974.29	192
1982.4	190
1990.5	204
1998.59	208
2006.67	180
2014.74	214
2022.8	206
2030.85	200
2038.89	210
2046.92	204
2054.94	186
2062.95	178
2070.96	200
2078.95	188
2086.93	214
2094.91	198
2102.87	196
2110.83	196
2118.77	202
2126.71	200
2134.63	202
2142.55	206
2150.46	188
2158.35	202
2166.24	206
2174.12	200
2181.99	212
2189.85	212
2197.7	194
2205.55	182
2213.38	192
2221.2	188
2229.02	202
2236.82	196
2244.62	192
2252.4	202
2260.18	196
2267.95	196
2275.71	182
2283.46	202
2291.2	188
2298.93	222
2306.65	214
2314.37	214
2322.07	198
2329.77	204
2337.45	214
2345.13	196
2352.8	180
2360.46	206
2368.11	198
2375.75	190
2383.38	222
2391.01	210
2398.62	212
2406.23	214
2413.82	210
2421.41	202
2428.99	202
2436.56	204
2444.12	202
2449.79	192

File: ps-ppo-7jan25-0,0000-map2_Y05_X08.txt
182.393	664
192.79	600
203.174	516
213.542	454
223.897	600
234.238	1214
244.566	850
254.878	448
265.178	312
275.463	274
285.734	372
295.992	630
306.236	456
316.467	366
326.684	370
336.887	424
347.075	352
357.251	360
367.413	328
377.562	318
387.697	236
397.819	234
407.926	246
418.02	344
428.101	222
438.169	194
448.223	156
458.264	156
468.291	234
478.306	400
488.307	430
498.294	224
508.269	232
518.23	298
528.177	384
538.113	776
548.034	432
557.942	500
567.838	2636
577.72	1500
587.589	584
597.446	448
607.289	232
617.119	226
626.936	252
636.741	318
646.533	254
656.313	188
666.078	166
675.831	148
685.571	158
695.299	172
705.014	174
714.716	232
724.406	184
734.082	196
743.746	260
753.398	300
763.037	190
772.664	192
782.278	210
791.879	178
801.467	194
811.044	202
820.608	222
830.16	780
839.699	372
849.226	262
858.741	234
868.243	186
877.731	180
887.209	180
896.674	174
906.128	172
915.569	172
924.997	168
934.414	212
943.818	232
953.211	510
962.59	850
971.958	426
981.314	234
990.659	226
999.99	192
1009.31	194
1018.62	212
1027.91	278
1037.2	276
1046.47	228
1055.73	196
1064.98	192
1074.22	180
1083.44	198
1092.65	204
1101.86	238
1111.05	816
1120.22	376
1129.39	244
1138.54	246
1147.69	198
1156.82	244
1165.94	266
1175.05	278
1184.14	556
1193.23	458
1202.3	454
1211.36	306
1220.41	250
1229.45	318
1238.48	242
1247.5	216
1256.5	218
1265.49	238
1274.48	260
1283.45	346
1292.41	486
1301.36	1516
1310.29	1354
1319.22	554
1328.13	444
1337.04	352
1345.93	362
1354.81	342
1363.68	312
1372.54	550
1381.38	1010
1390.22	372
1399.05	248
1407.86	270
1416.66	304
1425.46	378
1434.24	470
1443.01	502
1451.77	408
1460.52	396
1469.25	352
1477.98	342
1486.7	318
1495.4	290
1504.1	266
1512.78	250
1521.45	272
1530.11	270
1538.76	262
1547.41	282
1556.03	286
1564.65	308
1573.26	348
1581.86	462
1590.45	770
1599.02	1336
1607.59	1282
1616.14	742
1624.69	402
1633.22	300
1641.75	266
1650.26	244
1658.76	228
1667.26	228
1675.74	234
1684.21	248
1692.67	252
1701.12	228
1709.56	228
1717.99	236
1726.41	200
1734.82	202
1743.22	202
1751.61	212
1759.99	214
1768.36	224
1776.71	216
1785.06	212
1793.4	222
1801.73	206
1810.04	212
1818.35	206
1826.65	204
1834.94	212
1843.21	196
1851.48	192
1859.74	198
1867.98	200
1876.22	216
1884.45	208
1892.67	212
1900.87	214
1909.07	212
1917.26	206
1925.43	196
1933.6	206
1941.76	206
1949.91	206
1958.05	200
1966.17	204
1974.29	208
1982.4	192
1990.5	222
1998.59	206
2006.67	210
2014.74	212
2022.8	210
2030.85	198
2038.89	212
2046.92	216
2054.94	210
2062.95	210
2070.96	196
2078.95	196
2086.93	194
2094.91	192
2102.87	204
2110.83	214
2118.77	196
2126.71	202
2134.63	208
2142.55	214
2150.46	206
2158.35	192
2166.24	200
2174.12	206
2181.99	202
2189.85	206
2197.7	206
2205.55	200
2213.38	196
2221.2	212
2229.02	196
2236.82	186
2244.62	204
2252.4	200
2260.18	218
2267.95	208
2275.71	206
2283.46	210
2291.2	208
2298.93	220
2306.65	204
2314.37	212
2322.07	230
2329.77	200
2337.45	218
2345.13	222
2352.8	194
2360.46	212
2368.11	220
2375.75	222
2383.38	208
2391.01	222
2398.62	212
2406.23	224
2413.82	218
2421.41	196
2428.99	206
2436.56	190
2444.12	208
2449.79	208

File: ps-ppo-7jan25-0,0000-map2_Y06_X01.txt
182.393	692
192.79	612
203.174	524
213.542	452
223.897	578
234.238	1274
244.566	878
254.878	460
265.178	294
275.463	294
285.734	384
295.992	656
306.236	468
316.467	362
326.684	388
336.887	416
347.075	338
357.251	344
367.413	332
377.562	316
387.697	254
397.819	222
407.926	290
418.02	342
428.101	232
438.169	202
448.223	178
458.264	186
468.291	248
478.306	414
488.307	450
498.294	238
508.269	258
518.23	310
528.177	378
538.113	794
548.034	450
557.942	524
567.838	2700
577.72	1580
587.589	596
597.446	438
607.289	246
617.119	232
626.936	268
636.741	322
646.533	234
656.313	194
666.078	182
675.831	164
685.571	176
695.299	166
705.014	186
714.716	246
724.406	214
734.082	208
743.746	282
753.398	288
763.037	190
772.664	206
782.278	234
791.879	218
801.467	200
811.044	224
820.608	246
830.16	790
839.699	394
849.226	270
858.741	228
868.243	214
877.731	188
887.209	174
896.674	184
906.128	178
915.569	168
924.997	182
934.414	214
943.818	258
953.211	550
962.59	896
971.958	448
981.314	254
990.659	230
999.99	198
1009.31	206
1018.62	228
1027.91	260
1037.2	286
1046.47	238
1055.73	192
1064.98	190
1074.22	198
1083.44	188
1092.65	212
1101.86	262
1111.05	842
1120.22	394
1129.39	272
1138.54	242
1147.69	230
1156.82	254
1165.94	276
1175.05	264
1184.14	554
1193.23	432
1202.3	468
1211.36	318
1220.41	264
1229.45	346
1238.48	270
1247.5	250
1256.5	244
1265.49	234
1274.48	262
1283.45	356
1292.41	502
1301.36	1584
1310.29	1358
1319.22	540
1328.13	446
1337.04	342
1345.93	346
1354.81	366
1363.68	310
1372.54	530
1381.38	1036
1390.22	406
1399.05	272
1407.86	280
1416.66	344
1425.46	414
1434.24	460
1443.01	510
1451.77	404
1460.52	374
1469.25	360
1477.98	362
1486.7	296
1495.4	288
1504.1	288
1512.78	284
1521.45	278
1530.11	288
1538.76	278
1547.41	284
1556.03	284
1564.65	326
1573.26	368
1581.86	488
1590.45	762
1599.02	1364
1607.59	1266
1616.14	750
1624.69	428
1633.22	294
1641.75	258
1650.26	256
1658.76	238
1667.26	252
1675.74	226
1684.21	240
1692.67	240
1701.12	248
1709.56	242
1717.99	224
1726.41	222
1734.82	226
1743.22	228
1751.61	216
1759.99	226
1768.36	220
1776.71	226
1785.06	226
1793.4	212
1801.73	222
1810.04	204
1818.35	208
1826.65	200
1834.94	224
1843.21	218
1851.48	210
1859.74	200
1867.98	212
1876.22	210
1884.45	220
1892.67	226
1900.87	216
1909.07	200
1917.26	210
1925.43	226
1933.6	214
1941.76	222
1949.91	230
1958.05	198
1966.17	222
1974.29	212
1982.4	198
1990.5	192
1998.59	208
2006.67	220
2014.74	216
2022.8	224
2030.85	214
2038.89	224
2046.92	218
2054.94	220
2062.95	208
2070.96	226
2078.95	220
2086.93	214
2094.91	214
2102.87	220
2110.83	212
2118.77	194
2126.71	212
2134.63	228
2142.55	198
2150.46	214
2158.35	214
2166.24	202
2174.12	196
2181.99	240
2189.85	214
2197.7	202
2205.55	204
2213.38	224
2221.2	218
2229.02	212
2236.82	214
2244.62	218
2252.4	192
2260.18	210
2267.95	224
2275.71	218
2283.46	218
2291.2	226
2298.93	202
2306.65	224
2314.37	232
2322.07	214
2329.77	226
2337.45	220
2345.13	206
2352.8	220
2360.46	218
2368.11	216
2375.75	212
2383.38	216
2391.01	234
2398.62	210
2406.23	218
2413.82	224
2421.41	212
2428.99	218
2436.56	200
2444.12	212
2449.79	224

File: ps-ppo-7jan25-0,0000-map2_Y06_X06.txt
182.393	704
192.79	582
203.174	506
213.542	450
223.897	554
234.238	1248
244.566	866
254.878	458
265.178	304
275.463	278
285.734	400
295.992	608
306.236	452
316.467	352
326.684	368
336.887	382
347.075	342
357.251	350
367.413	330
377.562	294
387.697	242
397.819	232
407.926	258
418.02	334
428.101	228
438.169	172
448.223	166
458.264	146
468.291	230
478.306	364
488.307	428
498.294	226
508.269	230
518.23	308
528.177	358
538.113	730
548.034	446
557.942	490
567.838	2654
577.72	1506
587.589	590
597.446	430
607.289	236
617.119	216
626.936	278
636.741	296
646.533	260
656.313	188
666.078	162
675.831	144
685.571	150
695.299	160
705.014	152
714.716	222
724.406	208
734.082	184
743.746	258
753.398	274
763.037	194
772.664	170
782.278	214
791.879	164
801.467	170
811.044	188
820.608	236
830.16	776
839.699	368
849.226	262
858.741	226
868.243	198
877.731	190
887.209	164
896.674	162
906.128	156
915.569	156
924.997	180
934.414	174
943.818	238
953.211	528
962.59	888
971.958	412
981.314	234
990.659	204
999.99	182
1009.31	186
1018.62	216
1027.91	230
1037.2	264
1046.47	220
1055.73	180
1064.98	186
1074.22	180
1083.44	190
1092.65	200
1101.86	244
1111.05	794
1120.22	366
1129.39	232
1138.54	212
1147.69	230
1156.82	224
1165.94	242
1175.05	262
1184.14	528
1193.23	436
1202.3	470
1211.36	292
1220.41	222
1229.45	334
1238.48	258
1247.5	204
1256.5	204
1265.49	236
1274.48	246
1283.45	326
1292.41	480
1301.36	1502
1310.29	1316
1319.22	532
1328.13	418
1337.04	312
1345.93	328
1354.81	334
1363.68	306
1372.54	516
1381.38	1028
1390.22	404
1399.05	238
1407.86	272
1416.66	294
1425.46	398
1434.24	428
1443.01	440
1451.77	356
1460.52	334
1469.25	344
1477.98	348
1486.7	314
1495.4	254
1504.1	232
1512.78	270
1521.45	232
1530.11	244
1538.76	276
1547.41	242
1556.03	290
1564.65	290
1573.26	302
1581.86	448
1590.45	746
1599.02	1340
1607.59	1270
1616.14	722
1624.69	372
1633.22	260
1641.75	262
1650.26	224
1658.76	218
1667.26	226
1675.74	210
1684.21	214
1692.67	226
1701.12	242
1709.56	216
1717.99	200
1726.41	214
1734.82	190
1743.22	200
1751.61	186
1759.99	198
1768.36	194
1776.71	190
1785.06	188
1793.4	196
1801.73	192
1810.04	194
1818.35	192
1826.65	194
1834.94	176
1843.21	188
1851.48	180
1859.74	192
1867.98	190
1876.22	198
1884.45	212
1892.67	190
1900.87	184
1909.07	194
1917.26	180
1925.43	200
1933.6	198
1941.76	212
1949.91	192
1958.05	202
1966.17	196
1974.29	200
1982.4	192
1990.5	196
1998.59	202
2006.67	202
2014.74	194
2022.8	210
2030.85	196
2038.89	188
2046.92	200
2054.94	174
2062.95	196
2070.96	196
2078.95	192
2086.93	200
2094.91	184
2102.87	200
2110.83	188
2118.77	176
2126.71	194
2134.63	196
2142.55	190
2150.46	188
2158.35	180
2166.24	184
2174.12	194
2181.99	178
2189.85	190
2197.7	198
2205.55	180
2213.38	188
2221.2	208
2229.02	188
2236.82	194
2244.62	192
2252.4	190
2260.18	204
2267.95	184
2275.71	208
2283.46	186
2291.2	214
2298.93	182
2306.65	190
2314.37	220
2322.07	208
2329.77	202
2337.45	218
2345.13	202
2352.8	202
2360.46	220
2368.11	196
2375.75	208
2383.38	188
2391.01	204
2398.62	204
2406.23	206
2413.82	184
2421.41	182
2428.99	198
2436.56	190
2444.12	190
2449.79	204

File: ps-ppo-7jan25-0,0000-map2_Y06_X08.txt
182.393	710
192.79	598
203.174	512
213.542	436
223.897	584
234.238	1254
244.566	844
254.878	454
265.178	304
275.463	284
285.734	366
295.992	626
306.236	446
316.467	364
326.684	368
336.887	400
347.075	324
357.251	336
367.413	316
377.562	318
387.697	224
397.819	232
407.926	268
418.02	312
428.101	214
438.169	194
448.223	162
458.264	182
468.291	230
478.306	390
488.307	434
498.294	226
508.269	250
518.23	320
528.177	392
538.113	792
548.034	440
557.942	510
567.838	2620
577.72	1518
587.589	602
597.446	450
607.289	252
617.119	226
626.936	274
636.741	324
646.533	238
656.313	200
666.078	174
675.831	152
685.571	168
695.299	154
705.014	186
714.716	244
724.406	200
734.082	212
743.746	282
753.398	286
763.037	202
772.664	190
782.278	222
791.879	190
801.467	192
811.044	202
820.608	248
830.16	822
839.699	408
849.226	264
858.741	234
868.243	204
877.731	200
887.209	186
896.674	180
906.128	178
915.569	178
924.997	188
934.414	206
943.818	272
953.211	526
962.59	852
971.958	444
981.314	242
990.659	224
999.99	220
1009.31	196
1018.62	230
1027.91	248
1037.2	276
1046.47	226
1055.73	204
1064.98	194
1074.22	200
1083.44	204
1092.65	204
1101.86	252
1111.05	818
1120.22	398
1129.39	268
1138.54	248
1147.69	228
1156.82	232
1165.94	258
1175.05	266
1184.14	556
1193.23	452
1202.3	494
1211.36	296
1220.41	246
1229.45	342
1238.48	250
1247.5	230
1256.5	216
1265.49	252
1274.48	266
1283.45	346
1292.41	502
1301.36	1594
1310.29	1298
1319.22	546
1328.13	468
1337.04	338
1345.93	378
1354.81	358
1363.68	316
1372.54	562
1381.38	1060
1390.22	398
1399.05	298
1407.86	268
1416.66	320
1425.46	418
1434.24	472
1443.01	500
1451.77	388
1460.52	366
1469.25	360
1477.98	374
1486.7	308
1495.4	276
1504.1	298
1512.78	262
1521.45	276
1530.11	262
1538.76	276
1547.41	292
1556.03	284
1564.65	304
1573.26	354
1581.86	456
1590.45	750
1599.02	1374
1607.59	1276
1616.14	714
1624.69	406
1633.22	300
1641.75	272
1650.26	248
1658.76	250
1667.26	216
1675.74	232
1684.21	236
1692.67	254
1701.12	256
1709.56	232
1717.99	222
1726.41	228
1734.82	208
1743.22	224
1751.61	200
1759.99	218
1768.36	218
1776.71	228
1785.06	212
1793.4	216
1801.73	196
1810.04	202
1818.35	220
1826.65	202
1834.94	206
1843.21	212
1851.48	214
1859.74	204
1867.98	196
1876.22	206
1884.45	196
1892.67	212
1900.87	190
1909.07	220
1917.26	214
1925.43	196
1933.6	222
1941.76	216
1949.91	206
1958.05	218
1966.17	214
1974.29	198
1982.4	222
1990.5	214
1998.59	208
2006.67	212
2014.74	208
2022.8	212
2030.85	212
2038.89	204
2046.92	216
2054.94	222
2062.95	194
2070.96	216
2078.95	220
2086.93	220
2094.91	214
2102.87	204
2110.83	200
2118.77	224
2126.71	202
2134.63	212
2142.55	212
2150.46	206
2158.35	200
2166.24	210
2174.12	194
2181.99	200
2189.85	220
2197.7	222
2205.55	192
2213.38	204
2221.2	214
2229.02	206
2236.82	194
2244.62	222
2252.4	206
2260.18	216
2267.95	218
2275.71	214
2283.46	204
2291.2	200
2298.93	222
2306.65	200
2314.37	202
2322.07	228
2329.77	210
2337.45	220
2345.13	212
2352.8	196
2360.46	204
2368.11	214
2375.75	202
2383.38	220
2391.01	214
2398.62	230
2406.23	212
2413.82	208
2421.41	216
2428.99	214
2436.56	206
2444.12	192
2449.79	210