Folder: NRC_SU25_Spectral_Classification/Jesse_Dataset_v2/Pure Raman/Polypropylene oxide/633nm (part 6)

File: ps-ppo-7jan25-0,0000-map2_Y08_X04.txt
182.393	694
192.79	586
203.174	508
213.542	414
223.897	592
234.238	1206
244.566	858
254.878	452
265.178	304
275.463	286
285.734	368
295.992	634
306.236	468
316.467	356
326.684	338
336.887	376
347.075	348
357.251	358
367.413	306
377.562	320
387.697	248
397.819	224
407.926	266
418.02	334
428.101	226
438.169	178
448.223	168
458.264	188
468.291	226
478.306	384
488.307	440
498.294	228
508.269	240
518.23	304
528.177	394
538.113	746
548.034	450
557.942	488
567.838	2602
577.72	1564
587.589	608
597.446	446
607.289	238
617.119	222
626.936	260
636.741	308
646.533	238
656.313	192
666.078	162
675.831	152
685.571	166
695.299	166
705.014	176
714.716	246
724.406	198
734.082	204
743.746	272
753.398	300
763.037	190
772.664	188
782.278	208
791.879	188
801.467	184
811.044	216
820.608	246
830.16	786
839.699	402
849.226	266
858.741	224
868.243	202
877.731	176
887.209	184
896.674	166
906.128	172
915.569	170
924.997	168
934.414	202
943.818	248
953.211	542
962.59	906
971.958	448
981.314	238
990.659	236
999.99	188
1009.31	202
1018.62	220
1027.91	264
1037.2	282
1046.47	234
1055.73	212
1064.98	198
1074.22	200
1083.44	200
1092.65	214
1101.86	238
1111.05	798
1120.22	380
1129.39	258
1138.54	240
1147.69	224
1156.82	242
1165.94	270
1175.05	258
1184.14	562
1193.23	436
1202.3	490
1211.36	298
1220.41	234
1229.45	342
1238.48	252
1247.5	222
1256.5	220
1265.49	228
1274.48	264
1283.45	360
1292.41	496
1301.36	1532
1310.29	1346
1319.22	532
1328.13	474
1337.04	336
1345.93	370
1354.81	342
1363.68	308
1372.54	522
1381.38	1024
1390.22	402
1399.05	272
1407.86	270
1416.66	326
1425.46	416
1434.24	448
1443.01	502
1451.77	398
1460.52	358
1469.25	384
1477.98	370
1486.7	300
1495.4	300
1504.1	286
1512.78	276
1521.45	270
1530.11	280
1538.76	276
1547.41	266
1556.03	292
1564.65	292
1573.26	344
1581.86	454
1590.45	770
1599.02	1362
1607.59	1300
1616.14	722
1624.69	392
1633.22	292
1641.75	262
1650.26	252
1658.76	242
1667.26	232
1675.74	226
1684.21	236
1692.67	248
1701.12	252
1709.56	254
1717.99	230
1726.41	222
1734.82	208
1743.22	224
1751.61	224
1759.99	208
1768.36	218
1776.71	220
1785.06	210
1793.4	208
1801.73	212
1810.04	196
1818.35	198
1826.65	200
1834.94	186
1843.21	212
1851.48	218
1859.74	198
1867.98	208
1876.22	216
1884.45	188
1892.67	212
1900.87	196
1909.07	194
1917.26	208
1925.43	208
1933.6	202
1941.76	208
1949.91	206
1958.05	204
1966.17	204
1974.29	202
1982.4	212
1990.5	218
1998.59	214
2006.67	212
2014.74	204
2022.8	210
2030.85	206
2038.89	224
2046.92	220
2054.94	212
2062.95	208
2070.96	206
2078.95	226
2086.93	218
2094.91	204
2102.87	210
2110.83	220
2118.77	208
2126.71	212
2134.63	216
2142.55	218
2150.46	212
2158.35	234
2166.24	222
2174.12	208
2181.99	202
2189.85	208
2197.7	214
2205.55	198
2213.38	212
2221.2	220
2229.02	194
2236.82	204
2244.62	198
2252.4	210
2260.18	200
2267.95	196
2275.71	208
2283.46	228
2291.2	212
2298.93	212
2306.65	214
2314.37	230
2322.07	206
2329.77	222
2337.45	220
2345.13	224
2352.8	218
2360.46	200
2368.11	196
2375.75	218
2383.38	226
2391.01	216
2398.62	204
2406.23	230
2413.82	234
2421.41	214
2428.99	216
2436.56	206
2444.12	220
2449.79	212

File: ps-ppo-7jan25-0,0000-map2_Y08_X07.txt
182.393	654
192.79	552
203.174	490
213.542	434
223.897	574
234.238	1240
244.566	870
254.878	468
265.178	326
275.463	272
285.734	390
295.992	638
306.236	456
316.467	370
326.684	366
336.887	400
347.075	342
357.251	346
367.413	302
377.562	320
387.697	238
397.819	238
407.926	284
418.02	326
428.101	236
438.169	198
448.223	164
458.264	180
468.291	244
478.306	382
488.307	456
498.294	222
508.269	272
518.23	324
528.177	370
538.113	772
548.034	454
557.942	490
567.838	2538
577.72	1544
587.589	576
597.446	446
607.289	248
617.119	222
626.936	268
636.741	304
646.533	248
656.313	206
666.078	168
675.831	178
685.571	166
695.299	176
705.014	196
714.716	234
724.406	194
734.082	216
743.746	276
753.398	292
763.037	192
772.664	200
782.278	214
791.879	188
801.467	184
811.044	206
820.608	254
830.16	782
839.699	402
849.226	268
858.741	236
868.243	196
877.731	188
887.209	192
896.674	178
906.128	174
915.569	168
924.997	170
934.414	204
943.818	256
953.211	528
962.59	896
971.958	446
981.314	244
990.659	230
999.99	200
1009.31	204
1018.62	204
1027.91	256
1037.2	276
1046.47	240
1055.73	210
1064.98	192
1074.22	192
1083.44	196
1092.65	214
1101.86	240
1111.05	796
1120.22	376
1129.39	264
1138.54	254
1147.69	220
1156.82	258
1165.94	272
1175.05	294
1184.14	530
1193.23	450
1202.3	442
1211.36	330
1220.41	254
1229.45	346
1238.48	230
1247.5	230
1256.5	232
1265.49	242
1274.48	264
1283.45	338
1292.41	496
1301.36	1500
1310.29	1282
1319.22	548
1328.13	450
1337.04	360
1345.93	356
1354.81	354
1363.68	290
1372.54	490
1381.38	1016
1390.22	392
1399.05	276
1407.86	284
1416.66	332
1425.46	412
1434.24	466
1443.01	492
1451.77	400
1460.52	392
1469.25	356
1477.98	364
1486.7	296
1495.4	284
1504.1	268
1512.78	272
1521.45	264
1530.11	302
1538.76	266
1547.41	274
1556.03	304
1564.65	302
1573.26	324
1581.86	418
1590.45	768
1599.02	1372
1607.59	1332
1616.14	732
1624.69	378
1633.22	296
1641.75	246
1650.26	270
1658.76	234
1667.26	228
1675.74	226
1684.21	220
1692.67	286
1701.12	250
1709.56	242
1717.99	244
1726.41	214
1734.82	230
1743.22	216
1751.61	214
1759.99	218
1768.36	212
1776.71	220
1785.06	210
1793.4	208
1801.73	216
1810.04	218
1818.35	198
1826.65	208
1834.94	206
1843.21	214
1851.48	208
1859.74	202
1867.98	204
1876.22	214
1884.45	212
1892.67	228
1900.87	200
1909.07	220
1917.26	214
1925.43	222
1933.6	206
1941.76	210
1949.91	210
1958.05	212
1966.17	224
1974.29	212
1982.4	212
1990.5	224
1998.59	226
2006.67	216
2014.74	230
2022.8	210
2030.85	210
2038.89	208
2046.92	218
2054.94	216
2062.95	202
2070.96	206
2078.95	202
2086.93	210
2094.91	210
2102.87	208
2110.83	228
2118.77	218
2126.71	208
2134.63	218
2142.55	230
2150.46	202
2158.35	222
2166.24	194
2174.12	200
2181.99	232
2189.85	222
2197.7	206
2205.55	212
2213.38	202
2221.2	214
2229.02	210
2236.82	194
2244.62	222
2252.4	222
2260.18	208
2267.95	218
2275.71	208
2283.46	208
2291.2	204
2298.93	214
2306.65	228
2314.37	206
2322.07	220
2329.77	216
2337.45	216
2345.13	226
2352.8	200
2360.46	224
2368.11	200
2375.75	204
2383.38	226
2391.01	208
2398.62	210
2406.23	214
2413.82	222
2421.41	208
2428.99	204
2436.56	220
2444.12	216
2449.79	210

File: ps-ppo-7jan25-0,0000-map2_Y08_X09.txt
182.393	646
192.79	588
203.174	510
213.542	442
223.897	604
234.238	1198
244.566	852
254.878	480
265.178	310
275.463	300
285.734	374
295.992	582
306.236	446
316.467	382
326.684	378
336.887	380
347.075	352
357.251	354
367.413	324
377.562	306
387.697	264
397.819	244
407.926	268
418.02	360
428.101	260
438.169	192
448.223	168
458.264	180
468.291	240
478.306	400
488.307	470
498.294	238
508.269	256
518.23	310
528.177	386
538.113	738
548.034	462
557.942	504
567.838	2518
577.72	1554
587.589	592
597.446	440
607.289	250
617.119	222
626.936	272
636.741	310
646.533	254
656.313	208
666.078	194
675.831	188
685.571	186
695.299	180
705.014	176
714.716	226
724.406	198
734.082	228
743.746	284
753.398	302
763.037	222
772.664	204
782.278	236
791.879	198
801.467	204
811.044	218
820.608	252
830.16	784
839.699	384
849.226	274
858.741	238
868.243	226
877.731	208
887.209	196
896.674	162
906.128	202
915.569	190
924.997	184
934.414	204
943.818	246
953.211	502
962.59	868
971.958	424
981.314	252
990.659	234
999.99	210
1009.31	220
1018.62	234
1027.91	256
1037.2	282
1046.47	258
1055.73	214
1064.98	204
1074.22	198
1083.44	220
1092.65	220
1101.86	250
1111.05	760
1120.22	374
1129.39	270
1138.54	240
1147.69	226
1156.82	246
1165.94	270
1175.05	274
1184.14	536
1193.23	428
1202.3	464
1211.36	304
1220.41	264
1229.45	352
1238.48	244
1247.5	222
1256.5	236
1265.49	268
1274.48	270
1283.45	372
1292.41	516
1301.36	1538
1310.29	1316
1319.22	518
1328.13	482
1337.04	340
1345.93	374
1354.81	362
1363.68	312
1372.54	520
1381.38	1024
1390.22	418
1399.05	288
1407.86	284
1416.66	306
1425.46	406
1434.24	482
1443.01	508
1451.77	414
1460.52	412
1469.25	380
1477.98	376
1486.7	330
1495.4	320
1504.1	274
1512.78	288
1521.45	280
1530.11	282
1538.76	300
1547.41	290
1556.03	278
1564.65	312
1573.26	376
1581.86	466
1590.45	778
1599.02	1376
1607.59	1260
1616.14	746
1624.69	408
1633.22	308
1641.75	284
1650.26	256
1658.76	264
1667.26	238
1675.74	244
1684.21	238
1692.67	262
1701.12	240
1709.56	262
1717.99	236
1726.41	246
1734.82	226
1743.22	224
1751.61	216
1759.99	246
1768.36	216
1776.71	232
1785.06	224
1793.4	222
1801.73	236
1810.04	242
1818.35	220
1826.65	218
1834.94	230
1843.21	212
1851.48	230
1859.74	208
1867.98	206
1876.22	206
1884.45	220
1892.67	244
1900.87	234
1909.07	214
1917.26	208
1925.43	226
1933.6	218
1941.76	206
1949.91	240
1958.05	208
1966.17	238
1974.29	226
1982.4	212
1990.5	222
1998.59	254
2006.67	220
2014.74	234
2022.8	228
2030.85	228
2038.89	220
2046.92	238
2054.94	206
2062.95	216
2070.96	212
2078.95	232
2086.93	222
2094.91	224
2102.87	218
2110.83	200
2118.77	240
2126.71	236
2134.63	214
2142.55	212
2150.46	210
2158.35	218
2166.24	228
2174.12	222
2181.99	220
2189.85	224
2197.7	224
2205.55	218
2213.38	228
2221.2	208
2229.02	218
2236.82	204
2244.62	214
2252.4	212
2260.18	218
2267.95	230
2275.71	214
2283.46	228
2291.2	222
2298.93	222
2306.65	220
2314.37	222
2322.07	236
2329.77	226
2337.45	232
2345.13	220
2352.8	206
2360.46	224
2368.11	232
2375.75	222
2383.38	208
2391.01	218
2398.62	226
2406.23	232
2413.82	246
2421.41	216
2428.99	220
2436.56	200
2444.12	220
2449.79	226

File: ps-ppo-7jan25-0,0000-map2_Y08_X10.txt
182.393	674
192.79	602
203.174	518
213.542	440
223.897	566
234.238	1260
244.566	862
254.878	480
265.178	314
275.463	298
285.734	362
295.992	608
306.236	432
316.467	386
326.684	376
336.887	426
347.075	344
357.251	360
367.413	322
377.562	316
387.697	258
397.819	244
407.926	286
418.02	338
428.101	238
438.169	214
448.223	190
458.264	222
468.291	254
478.306	364
488.307	456
498.294	252
508.269	254
518.23	322
528.177	388
538.113	734
548.034	440
557.942	498
567.838	2488
577.72	1558
587.589	598
597.446	448
607.289	260
617.119	254
626.936	272
636.741	344
646.533	242
656.313	230
666.078	206
675.831	178
685.571	190
695.299	188
705.014	200
714.716	260
724.406	214
734.082	234
743.746	272
753.398	302
763.037	220
772.664	228
782.278	244
791.879	220
801.467	224
811.044	238
820.608	242
830.16	794
839.699	418
849.226	278
858.741	258
868.243	238
877.731	228
887.209	194
896.674	208
906.128	186
915.569	204
924.997	224
934.414	210
943.818	292
953.211	532
962.59	870
971.958	456
981.314	260
990.659	246
999.99	208
1009.31	222
1018.62	236
1027.91	278
1037.2	324
1046.47	274
1055.73	222
1064.98	232
1074.22	228
1083.44	236
1092.65	236
1101.86	270
1111.05	828
1120.22	378
1129.39	296
1138.54	258
1147.69	246
1156.82	266
1165.94	286
1175.05	306
1184.14	580
1193.23	462
1202.3	476
1211.36	316
1220.41	270
1229.45	368
1238.48	286
1247.5	240
1256.5	258
1265.49	254
1274.48	284
1283.45	412
1292.41	506
1301.36	1532
1310.29	1342
1319.22	564
1328.13	482
1337.04	362
1345.93	376
1354.81	400
1363.68	342
1372.54	584
1381.38	1086
1390.22	420
1399.05	308
1407.86	308
1416.66	326
1425.46	418
1434.24	486
1443.01	516
1451.77	422
1460.52	418
1469.25	400
1477.98	380
1486.7	332
1495.4	320
1504.1	322
1512.78	302
1521.45	310
1530.11	306
1538.76	296
1547.41	312
1556.03	322
1564.65	312
1573.26	356
1581.86	474
1590.45	806
1599.02	1352
1607.59	1264
1616.14	772
1624.69	424
1633.22	330
1641.75	280
1650.26	278
1658.76	268
1667.26	254
1675.74	264
1684.21	258
1692.67	272
1701.12	260
1709.56	254
1717.99	246
1726.41	244
1734.82	240
1743.22	246
1751.61	262
1759.99	252
1768.36	242
1776.71	236
1785.06	238
1793.4	216
1801.73	226
1810.04	224
1818.35	236
1826.65	242
1834.94	226
1843.21	234
1851.48	244
1859.74	250
1867.98	240
1876.22	238
1884.45	246
1892.67	220
1900.87	226
1909.07	260
1917.26	234
1925.43	230
1933.6	236
1941.76	220
1949.91	240
1958.05	246
1966.17	250
1974.29	236
1982.4	246
1990.5	216
1998.59	236
2006.67	238
2014.74	234
2022.8	236
2030.85	232
2038.89	220
2046.92	232
2054.94	224
2062.95	234
2070.96	248
2078.95	222
2086.93	234
2094.91	252
2102.87	250
2110.83	228
2118.77	234
2126.71	244
2134.63	224
2142.55	248
2150.46	226
2158.35	232
2166.24	244
2174.12	222
2181.99	240
2189.85	220
2197.7	220
2205.55	222
2213.38	232
2221.2	234
2229.02	232
2236.82	238
2244.62	234
2252.4	222
2260.18	244
2267.95	232
2275.71	226
2283.46	232
2291.2	232
2298.93	232
2306.65	238
2314.37	238
2322.07	234
2329.77	242
2337.45	244
2345.13	264
2352.8	240
2360.46	238
2368.11	230
2375.75	224
2383.38	236
2391.01	234
2398.62	246
2406.23	246
2413.82	236
2421.41	216
2428.99	220
2436.56	224
2444.12	224
2449.79	216

File: ps-ppo-7jan25-0,0000-map2_Y09_X00.txt
182.393	712
192.79	570
203.174	528
213.542	460
223.897	608
234.238	1274
244.566	876
254.878	478
265.178	314
275.463	292
285.734	364
295.992	630
306.236	462
316.467	376
326.684	398
336.887	410
347.075	362
357.251	360
367.413	342
377.562	310
387.697	248
397.819	272
407.926	282
418.02	332
428.101	248
438.169	192
448.223	178
458.264	212
468.291	250
478.306	416
488.307	478
498.294	256
508.269	276
518.23	330
528.177	400
538.113	772
548.034	472
557.942	506
567.838	2496
577.72	1568
587.589	598
597.446	478
607.289	248
617.119	254
626.936	288
636.741	344
646.533	276
656.313	240
666.078	212
675.831	190
685.571	186
695.299	202
705.014	204
714.716	276
724.406	228
734.082	244
743.746	292
753.398	304
763.037	232
772.664	212
782.278	246
791.879	226
801.467	222
811.044	248
820.608	244
830.16	772
839.699	420
849.226	276
858.741	260
868.243	230
877.731	190
887.209	196
896.674	196
906.128	202
915.569	192
924.997	222
934.414	230
943.818	280
953.211	540
962.59	876
971.958	452
981.314	288
990.659	246
999.99	224
1009.31	208
1018.62	246
1027.91	268
1037.2	304
1046.47	252
1055.73	256
1064.98	234
1074.22	228
1083.44	230
1092.65	240
1101.86	272
1111.05	818
1120.22	410
1129.39	294
1138.54	282
1147.69	260
1156.82	264
1165.94	284
1175.05	302
1184.14	576
1193.23	482
1202.3	498
1211.36	314
1220.41	286
1229.45	398
1238.48	258
1247.5	248
1256.5	242
1265.49	290
1274.48	290
1283.45	376
1292.41	510
1301.36	1478
1310.29	1340
1319.22	568
1328.13	484
1337.04	372
1345.93	386
1354.81	392
1363.68	334
1372.54	546
1381.38	1084
1390.22	408
1399.05	312
1407.86	306
1416.66	330
1425.46	456
1434.24	468
1443.01	526
1451.77	442
1460.52	396
1469.25	402
1477.98	376
1486.7	312
1495.4	298
1504.1	318
1512.78	304
1521.45	268
1530.11	298
1538.76	280
1547.41	318
1556.03	320
1564.65	320
1573.26	366
1581.86	474
1590.45	784
1599.02	1352
1607.59	1290
1616.14	744
1624.69	418
1633.22	344
1641.75	300
1650.26	268
1658.76	258
1667.26	264
1675.74	260
1684.21	236
1692.67	284
1701.12	282
1709.56	262
1717.99	260
1726.41	258
1734.82	246
1743.22	248
1751.61	250
1759.99	242
1768.36	244
1776.71	244
1785.06	230
1793.4	226
1801.73	248
1810.04	238
1818.35	258
1826.65	246
1834.94	242
1843.21	240
1851.48	240
1859.74	232
1867.98	242
1876.22	226
1884.45	244
1892.67	224
1900.87	238
1909.07	226
1917.26	258
1925.43	224
1933.6	240
1941.76	232
1949.91	238
1958.05	230
1966.17	228
1974.29	230
1982.4	246
1990.5	234
1998.59	236
2006.67	228
2014.74	244
2022.8	238
2030.85	226
2038.89	240
2046.92	244
2054.94	238
2062.95	250
2070.96	230
2078.95	222
2086.93	250
2094.91	244
2102.87	256
2110.83	240
2118.77	236
2126.71	224
2134.63	240
2142.55	232
2150.46	238
2158.35	220
2166.24	222
2174.12	242
2181.99	224
2189.85	222
2197.7	226
2205.55	250
2213.38	246
2221.2	220
2229.02	214
2236.82	246
2244.62	220
2252.4	242
2260.18	218
2267.95	226
2275.71	232
2283.46	244
2291.2	230
2298.93	230
2306.65	242
2314.37	262
2322.07	244
2329.77	240
2337.45	242
2345.13	236
2352.8	220
2360.46	210
2368.11	240
2375.75	228
2383.38	240
2391.01	236
2398.62	248
2406.23	270
2413.82	246
2421.41	244
2428.99	226
2436.56	228
2444.12	220
2449.79	230

File: ps-ppo-7jan25-0,0000-map2_Y09_X07.txt
182.393	712
192.79	598
203.174	480
213.542	434
223.897	562
234.238	1226
244.566	852
254.878	470
265.178	306
275.463	266
285.734	350
295.992	628
306.236	424
316.467	362
326.684	372
336.887	388
347.075	346
357.251	328
367.413	308
377.562	298
387.697	246
397.819	244
407.926	272
418.02	334
428.101	220
438.169	188
448.223	178
458.264	180
468.291	238
478.306	368
488.307	454
498.294	222
508.269	246
518.23	288
528.177	384
538.113	730
548.034	450
557.942	486
567.838	2552
577.72	1570
587.589	592
597.446	444
607.289	254
617.119	228
626.936	274
636.741	306
646.533	230
656.313	190
666.078	166
675.831	158
685.571	172
695.299	152
705.014	190
714.716	242
724.406	202
734.082	204
743.746	260
753.398	268
763.037	202
772.664	204
782.278	204
791.879	194
801.467	196
811.044	202
820.608	238
830.16	744
839.699	376
849.226	274
858.741	244
868.243	204
877.731	196
887.209	184
896.674	176
906.128	180
915.569	172
924.997	168
934.414	182
943.818	260
953.211	528
962.59	860
971.958	450
981.314	254
990.659	222
999.99	204
1009.31	206
1018.62	246
1027.91	262
1037.2	278
1046.47	250
1055.73	192
1064.98	220
1074.22	190
1083.44	200
1092.65	222
1101.86	248
1111.05	834
1120.22	388
1129.39	260
1138.54	256
1147.69	230
1156.82	224
1165.94	264
1175.05	278
1184.14	566
1193.23	458
1202.3	482
1211.36	316
1220.41	230
1229.45	346
1238.48	264
1247.5	216
1256.5	228
1265.49	258
1274.48	252
1283.45	336
1292.41	510
1301.36	1460
1310.29	1324
1319.22	524
1328.13	468
1337.04	346
1345.93	378
1354.81	350
1363.68	308
1372.54	518
1381.38	1038
1390.22	384
1399.05	272
1407.86	278
1416.66	322
1425.46	394
1434.24	460
1443.01	512
1451.77	406
1460.52	374
1469.25	336
1477.98	348
1486.7	310
1495.4	278
1504.1	274
1512.78	268
1521.45	252
1530.11	268
1538.76	270
1547.41	304
1556.03	290
1564.65	294
1573.26	348
1581.86	460
1590.45	740
1599.02	1308
1607.59	1268
1616.14	736
1624.69	406
1633.22	300
1641.75	282
1650.26	246
1658.76	248
1667.26	218
1675.74	238
1684.21	240
1692.67	254
1701.12	234
1709.56	214
1717.99	226
1726.41	208
1734.82	224
1743.22	212
1751.61	222
1759.99	204
1768.36	208
1776.71	224
1785.06	204
1793.4	214
1801.73	222
1810.04	204
1818.35	222
1826.65	216
1834.94	210
1843.21	220
1851.48	206
1859.74	200
1867.98	212
1876.22	214
1884.45	206
1892.67	198
1900.87	214
1909.07	202
1917.26	212
1925.43	210
1933.6	212
1941.76	216
1949.91	210
1958.05	190
1966.17	202
1974.29	208
1982.4	212
1990.5	206
1998.59	212
2006.67	218
2014.74	220
2022.8	220
2030.85	226
2038.89	224
2046.92	234
2054.94	214
2062.95	214
2070.96	206
2078.95	212
2086.93	212
2094.91	220
2102.87	218
2110.83	210
2118.77	200
2126.71	208
2134.63	210
2142.55	196
2150.46	220
2158.35	202
2166.24	204
2174.12	218
2181.99	218
2189.85	210
2197.7	196
2205.55	206
2213.38	212
2221.2	208
2229.02	220
2236.82	226
2244.62	212
2252.4	216
2260.18	220
2267.95	212
2275.71	204
2283.46	216
2291.2	200
2298.93	224
2306.65	196
2314.37	210
2322.07	218
2329.77	222
2337.45	220
2345.13	218
2352.8	222
2360.46	214
2368.11	218
2375.75	208
2383.38	212
2391.01	220
2398.62	228
2406.23	226
2413.82	216
2421.41	214
2428.99	190
2436.56	210
2444.12	202
2449.79	218

File: ps-ppo-7jan25-0,0000-map2_Y10_X00.txt
182.393	686
192.79	590
203.174	502
213.542	444
223.897	606
234.238	1244
244.566	878
254.878	452
265.178	334
275.463	326
285.734	380
295.992	620
306.236	478
316.467	372
326.684	366
336.887	406
347.075	340
357.251	390
367.413	360
377.562	320
387.697	272
397.819	248
407.926	296
418.02	360
428.101	242
438.169	218
448.223	188
458.264	208
468.291	260
478.306	416
488.307	476
498.294	252
508.269	280
518.23	358
528.177	410
538.113	756
548.034	476
557.942	530
567.838	2444
577.72	1530
587.589	588
597.446	452
607.289	266
617.119	252
626.936	272
636.741	354
646.533	266
656.313	230
666.078	196
675.831	192
685.571	194
695.299	182
705.014	198
714.716	270
724.406	232
734.082	232
743.746	288
753.398	324
763.037	224
772.664	214
782.278	236
791.879	220
801.467	224
811.044	220
820.608	272
830.16	788
839.699	432
849.226	272
858.741	264
868.243	214
877.731	226
887.209	190
896.674	200
906.128	212
915.569	218
924.997	210
934.414	224
943.818	266
953.211	580
962.59	916
971.958	488
981.314	270
990.659	248
999.99	230
1009.31	236
1018.62	240
1027.91	268
1037.2	318
1046.47	246
1055.73	240
1064.98	240
1074.22	228
1083.44	214
1092.65	254
1101.86	272
1111.05	822
1120.22	398
1129.39	284
1138.54	292
1147.69	270
1156.82	262
1165.94	280
1175.05	320
1184.14	556
1193.23	458
1202.3	478
1211.36	324
1220.41	272
1229.45	386
1238.48	282
1247.5	274
1256.5	280
1265.49	278
1274.48	284
1283.45	376
1292.41	554
1301.36	1548
1310.29	1348
1319.22	558
1328.13	494
1337.04	342
1345.93	356
1354.81	376
1363.68	336
1372.54	570
1381.38	1010
1390.22	442
1399.05	310
1407.86	292
1416.66	334
1425.46	430
1434.24	468
1443.01	534
1451.77	434
1460.52	434
1469.25	380
1477.98	398
1486.7	354
1495.4	314
1504.1	306
1512.78	304
1521.45	296
1530.11	306
1538.76	280
1547.41	318
1556.03	306
1564.65	324
1573.26	374
1581.86	488
1590.45	792
1599.02	1372
1607.59	1302
1616.14	744
1624.69	420
1633.22	310
1641.75	276
1650.26	284
1658.76	248
1667.26	262
1675.74	246
1684.21	268
1692.67	292
1701.12	274
1709.56	270
1717.99	254
1726.41	256
1734.82	232
1743.22	242
1751.61	258
1759.99	228
1768.36	234
1776.71	262
1785.06	246
1793.4	240
1801.73	250
1810.04	220
1818.35	246
1826.65	254
1834.94	246
1843.21	234
1851.48	252
1859.74	240
1867.98	228
1876.22	226
1884.45	230
1892.67	244
1900.87	238
1909.07	242
1917.26	258
1925.43	234
1933.6	234
1941.76	246
1949.91	238
1958.05	236
1966.17	240
1974.29	240
1982.4	234
1990.5	244
1998.59	226
2006.67	244
2014.74	234
2022.8	232
2030.85	244
2038.89	228
2046.92	236
2054.94	256
2062.95	250
2070.96	246
2078.95	232
2086.93	242
2094.91	236
2102.87	232
2110.83	238
2118.77	228
2126.71	244
2134.63	248
2142.55	240
2150.46	220
2158.35	228
2166.24	244
2174.12	228
2181.99	246
2189.85	246
2197.7	230
2205.55	226
2213.38	238
2221.2	250
2229.02	228
2236.82	242
2244.62	238
2252.4	242
2260.18	242
2267.95	250
2275.71	212
2283.46	240
2291.2	230
2298.93	238
2306.65	232
2314.37	230
2322.07	224
2329.77	238
2337.45	232
2345.13	232
2352.8	238
2360.46	218
2368.11	216
2375.75	234
2383.38	254
2391.01	234
2398.62	238
2406.23	232
2413.82	236
2421.41	214
2428.99	230
2436.56	244
2444.12	238
2449.79	232

File: ps-ppo-7jan25-0,0000-map2_Y10_X01.txt
182.393	670
192.79	544
203.174	516
213.542	456
223.897	572
234.238	1174
244.566	824
254.878	460
265.178	308
275.463	262
285.734	384
295.992	614
306.236	450
316.467	372
326.684	364
336.887	386
347.075	340
357.251	358
367.413	304
377.562	314
387.697	242
397.819	222
407.926	284
418.02	344
428.101	220
438.169	186
448.223	156
458.264	194
468.291	218
478.306	362
488.307	444
498.294	228
508.269	262
518.23	322
528.177	378
538.113	730
548.034	418
557.942	474
567.838	2460
577.72	1500
587.589	568
597.446	446
607.289	244
617.119	196
626.936	276
636.741	330
646.533	246
656.313	184
666.078	168
675.831	168
685.571	166
695.299	168
705.014	166
714.716	244
724.406	206
734.082	206
743.746	272
753.398	278
763.037	190
772.664	192
782.278	214
791.879	206
801.467	180
811.044	208
820.608	228
830.16	754
839.699	376
849.226	258
858.741	248
868.243	198
877.731	184
887.209	190
896.674	178
906.128	176
915.569	170
924.997	190
934.414	190
943.818	266
953.211	550
962.59	832
971.958	434
981.314	238
990.659	240
999.99	180
1009.31	184
1018.62	202
1027.91	252
1037.2	272
1046.47	218
1055.73	208
1064.98	198
1074.22	188
1083.44	198
1092.65	208
1101.86	244
1111.05	820
1120.22	368
1129.39	226
1138.54	244
1147.69	222
1156.82	234
1165.94	262
1175.05	280
1184.14	516
1193.23	444
1202.3	458
1211.36	314
1220.41	246
1229.45	324
1238.48	256
1247.5	216
1256.5	224
1265.49	256
1274.48	244
1283.45	328
1292.41	498
1301.36	1498
1310.29	1282
1319.22	534
1328.13	426
1337.04	328
1345.93	380
1354.81	350
1363.68	292
1372.54	542
1381.38	1008
1390.22	394
1399.05	266
1407.86	260
1416.66	330
1425.46	394
1434.24	432
1443.01	498
1451.77	392
1460.52	352
1469.25	352
1477.98	384
1486.7	298
1495.4	264
1504.1	270
1512.78	268
1521.45	272
1530.11	250
1538.76	268
1547.41	270
1556.03	268
1564.65	292
1573.26	318
1581.86	466
1590.45	722
1599.02	1310
1607.59	1282
1616.14	708
1624.69	380
1633.22	302
1641.75	226
1650.26	262
1658.76	236
1667.26	238
1675.74	226
1684.21	240
1692.67	272
1701.12	236
1709.56	270
1717.99	248
1726.41	214
1734.82	210
1743.22	212
1751.61	220
1759.99	218
1768.36	224
1776.71	218
1785.06	200
1793.4	212
1801.73	188
1810.04	226
1818.35	206
1826.65	212
1834.94	198
1843.21	218
1851.48	206
1859.74	214
1867.98	202
1876.22	192
1884.45	196
1892.67	212
1900.87	210
1909.07	196
1917.26	208
1925.43	208
1933.6	218
1941.76	206
1949.91	224
1958.05	204
1966.17	224
1974.29	194
1982.4	190
1990.5	206
1998.59	208
2006.67	224
2014.74	204
2022.8	242
2030.85	204
2038.89	204
2046.92	204
2054.94	228
2062.95	214
2070.96	214
2078.95	198
2086.93	194
2094.91	202
2102.87	212
2110.83	214
2118.77	212
2126.71	214
2134.63	220
2142.55	218
2150.46	224
2158.35	216
2166.24	224
2174.12	198
2181.99	216
2189.85	212
2197.7	212
2205.55	208
2213.38	204
2221.2	206
2229.02	226
2236.82	200
2244.62	218
2252.4	208
2260.18	208
2267.95	222
2275.71	210
2283.46	206
2291.2	226
2298.93	214
2306.65	226
2314.37	232
2322.07	222
2329.77	236
2337.45	220
2345.13	212
2352.8	210
2360.46	216
2368.11	214
2375.75	216
2383.38	206
2391.01	230
2398.62	226
2406.23	212
2413.82	218
2421.41	210
2428.99	210
2436.56	210
2444.12	208
2449.79	216