Folder: NRC_SU25_Spectral_Classification/Jesse_Dataset_v2/Pure Raman/Polypropylene oxide/633nm (part 3)

File: ps-ppo-7jan25-0,0000-map2_Y04_X01.txt
182.393	696
192.79	588
203.174	516
213.542	466
223.897	600
234.238	1296
244.566	922
254.878	498
265.178	334
275.463	294
285.734	418
295.992	656
306.236	470
316.467	392
326.684	402
336.887	406
347.075	360
357.251	362
367.413	344
377.562	328
387.697	264
397.819	236
407.926	292
418.02	354
428.101	216
438.169	196
448.223	184
458.264	198
468.291	246
478.306	424
488.307	460
498.294	236
508.269	262
518.23	328
528.177	410
538.113	830
548.034	492
557.942	508
567.838	2750
577.72	1568
587.589	626
597.446	468
607.289	256
617.119	234
626.936	278
636.741	332
646.533	252
656.313	214
666.078	188
675.831	188
685.571	172
695.299	182
705.014	196
714.716	262
724.406	222
734.082	208
743.746	288
753.398	302
763.037	204
772.664	204
782.278	226
791.879	204
801.467	206
811.044	230
820.608	262
830.16	808
839.699	396
849.226	264
858.741	246
868.243	206
877.731	200
887.209	188
896.674	184
906.128	178
915.569	200
924.997	198
934.414	224
943.818	266
953.211	540
962.59	920
971.958	504
981.314	250
990.659	256
999.99	206
1009.31	226
1018.62	238
1027.91	268
1037.2	298
1046.47	236
1055.73	220
1064.98	220
1074.22	216
1083.44	212
1092.65	218
1101.86	238
1111.05	846
1120.22	378
1129.39	264
1138.54	246
1147.69	212
1156.82	252
1165.94	294
1175.05	256
1184.14	566
1193.23	462
1202.3	508
1211.36	290
1220.41	258
1229.45	340
1238.48	260
1247.5	256
1256.5	228
1265.49	262
1274.48	268
1283.45	374
1292.41	500
1301.36	1640
1310.29	1356
1319.22	558
1328.13	476
1337.04	348
1345.93	352
1354.81	386
1363.68	338
1372.54	544
1381.38	1040
1390.22	412
1399.05	294
1407.86	280
1416.66	330
1425.46	414
1434.24	486
1443.01	512
1451.77	424
1460.52	422
1469.25	378
1477.98	390
1486.7	332
1495.4	300
1504.1	286
1512.78	272
1521.45	288
1530.11	290
1538.76	274
1547.41	274
1556.03	290
1564.65	296
1573.26	346
1581.86	492
1590.45	808
1599.02	1350
1607.59	1286
1616.14	760
1624.69	402
1633.22	312
1641.75	272
1650.26	254
1658.76	236
1667.26	244
1675.74	238
1684.21	242
1692.67	266
1701.12	262
1709.56	258
1717.99	230
1726.41	228
1734.82	214
1743.22	220
1751.61	224
1759.99	204
1768.36	236
1776.71	230
1785.06	224
1793.4	210
1801.73	230
1810.04	228
1818.35	216
1826.65	240
1834.94	220
1843.21	202
1851.48	224
1859.74	218
1867.98	226
1876.22	222
1884.45	230
1892.67	216
1900.87	206
1909.07	218
1917.26	214
1925.43	228
1933.6	242
1941.76	222
1949.91	218
1958.05	210
1966.17	210
1974.29	228
1982.4	216
1990.5	212
1998.59	200
2006.67	222
2014.74	240
2022.8	222
2030.85	214
2038.89	214
2046.92	222
2054.94	200
2062.95	224
2070.96	236
2078.95	210
2086.93	226
2094.91	210
2102.87	220
2110.83	224
2118.77	224
2126.71	230
2134.63	218
2142.55	222
2150.46	208
2158.35	224
2166.24	214
2174.12	224
2181.99	212
2189.85	216
2197.7	230
2205.55	218
2213.38	196
2221.2	224
2229.02	196
2236.82	244
2244.62	210
2252.4	212
2260.18	220
2267.95	210
2275.71	220
2283.46	222
2291.2	232
2298.93	220
2306.65	208
2314.37	238
2322.07	232
2329.77	222
2337.45	224
2345.13	240
2352.8	214
2360.46	208
2368.11	218
2375.75	210
2383.38	218
2391.01	226
2398.62	226
2406.23	230
2413.82	228
2421.41	212
2428.99	218
2436.56	224
2444.12	198
2449.79	226

File: ps-ppo-7jan25-0,0000-map2_Y04_X02.txt
182.393	696
192.79	610
203.174	500
213.542	438
223.897	610
234.238	1266
244.566	914
254.878	462
265.178	304
275.463	274
285.734	388
295.992	616
306.236	442
316.467	358
326.684	400
336.887	410
347.075	342
357.251	354
367.413	342
377.562	308
387.697	238
397.819	230
407.926	274
418.02	376
428.101	244
438.169	186
448.223	182
458.264	166
468.291	242
478.306	384
488.307	452
498.294	218
508.269	252
518.23	320
528.177	384
538.113	800
548.034	450
557.942	518
567.838	2692
577.72	1544
587.589	606
597.446	460
607.289	224
617.119	234
626.936	270
636.741	316
646.533	252
656.313	194
666.078	170
675.831	154
685.571	174
695.299	172
705.014	184
714.716	242
724.406	200
734.082	200
743.746	264
753.398	284
763.037	190
772.664	204
782.278	222
791.879	204
801.467	194
811.044	214
820.608	230
830.16	812
839.699	406
849.226	254
858.741	232
868.243	202
877.731	186
887.209	176
896.674	154
906.128	186
915.569	168
924.997	184
934.414	212
943.818	248
953.211	546
962.59	866
971.958	462
981.314	244
990.659	218
999.99	192
1009.31	194
1018.62	230
1027.91	252
1037.2	272
1046.47	234
1055.73	198
1064.98	200
1074.22	194
1083.44	200
1092.65	214
1101.86	250
1111.05	814
1120.22	352
1129.39	258
1138.54	250
1147.69	212
1156.82	248
1165.94	250
1175.05	278
1184.14	564
1193.23	458
1202.3	490
1211.36	308
1220.41	240
1229.45	342
1238.48	248
1247.5	230
1256.5	234
1265.49	254
1274.48	258
1283.45	376
1292.41	494
1301.36	1572
1310.29	1316
1319.22	566
1328.13	446
1337.04	320
1345.93	356
1354.81	342
1363.68	306
1372.54	518
1381.38	1008
1390.22	418
1399.05	274
1407.86	280
1416.66	328
1425.46	410
1434.24	470
1443.01	512
1451.77	398
1460.52	382
1469.25	378
1477.98	358
1486.7	324
1495.4	282
1504.1	266
1512.78	278
1521.45	292
1530.11	278
1538.76	288
1547.41	286
1556.03	276
1564.65	274
1573.26	332
1581.86	412
1590.45	748
1599.02	1356
1607.59	1302
1616.14	744
1624.69	364
1633.22	282
1641.75	242
1650.26	230
1658.76	256
1667.26	232
1675.74	230
1684.21	226
1692.67	248
1701.12	242
1709.56	236
1717.99	228
1726.41	222
1734.82	222
1743.22	218
1751.61	228
1759.99	208
1768.36	202
1776.71	212
1785.06	208
1793.4	200
1801.73	200
1810.04	206
1818.35	208
1826.65	210
1834.94	212
1843.21	208
1851.48	202
1859.74	204
1867.98	212
1876.22	212
1884.45	214
1892.67	200
1900.87	202
1909.07	212
1917.26	202
1925.43	196
1933.6	218
1941.76	200
1949.91	202
1958.05	218
1966.17	218
1974.29	206
1982.4	180
1990.5	214
1998.59	200
2006.67	206
2014.74	212
2022.8	206
2030.85	214
2038.89	218
2046.92	202
2054.94	214
2062.95	206
2070.96	198
2078.95	202
2086.93	224
2094.91	222
2102.87	214
2110.83	202
2118.77	208
2126.71	202
2134.63	192
2142.55	218
2150.46	196
2158.35	198
2166.24	202
2174.12	210
2181.99	208
2189.85	192
2197.7	208
2205.55	210
2213.38	210
2221.2	214
2229.02	206
2236.82	200
2244.62	200
2252.4	220
2260.18	210
2267.95	202
2275.71	210
2283.46	210
2291.2	204
2298.93	224
2306.65	220
2314.37	210
2322.07	224
2329.77	206
2337.45	206
2345.13	196
2352.8	222
2360.46	202
2368.11	222
2375.75	218
2383.38	218
2391.01	230
2398.62	212
2406.23	218
2413.82	214
2421.41	206
2428.99	196
2436.56	204
2444.12	208
2449.79	216

File: ps-ppo-7jan25-0,0000-map2_Y04_X06.txt
182.393	676
192.79	562
203.174	486
213.542	424
223.897	562
234.238	1250
244.566	848
254.878	458
265.178	290
275.463	264
285.734	334
295.992	608
306.236	434
316.467	350
326.684	360
336.887	372
347.075	328
357.251	346
367.413	296
377.562	272
387.697	216
397.819	188
407.926	244
418.02	302
428.101	200
438.169	174
448.223	142
458.264	148
468.291	212
478.306	392
488.307	454
498.294	214
508.269	230
518.23	274
528.177	354
538.113	744
548.034	396
557.942	466
567.838	2654
577.72	1478
587.589	568
597.446	424
607.289	212
617.119	182
626.936	222
636.741	274
646.533	228
656.313	158
666.078	150
675.831	134
685.571	142
695.299	134
705.014	152
714.716	212
724.406	162
734.082	182
743.746	240
753.398	250
763.037	172
772.664	172
782.278	182
791.879	174
801.467	164
811.044	172
820.608	206
830.16	758
839.699	362
849.226	218
858.741	198
868.243	160
877.731	164
887.209	144
896.674	140
906.128	140
915.569	154
924.997	144
934.414	168
943.818	206
953.211	498
962.59	874
971.958	402
981.314	220
990.659	194
999.99	168
1009.31	172
1018.62	192
1027.91	218
1037.2	234
1046.47	192
1055.73	174
1064.98	176
1074.22	168
1083.44	178
1092.65	166
1101.86	202
1111.05	818
1120.22	360
1129.39	214
1138.54	218
1147.69	198
1156.82	202
1165.94	232
1175.05	236
1184.14	516
1193.23	418
1202.3	468
1211.36	288
1220.41	204
1229.45	304
1238.48	222
1247.5	170
1256.5	188
1265.49	206
1274.48	248
1283.45	330
1292.41	464
1301.36	1522
1310.29	1274
1319.22	502
1328.13	420
1337.04	296
1345.93	344
1354.81	326
1363.68	278
1372.54	518
1381.38	990
1390.22	368
1399.05	236
1407.86	236
1416.66	298
1425.46	384
1434.24	438
1443.01	454
1451.77	352
1460.52	338
1469.25	344
1477.98	338
1486.7	288
1495.4	250
1504.1	240
1512.78	238
1521.45	246
1530.11	246
1538.76	240
1547.41	234
1556.03	260
1564.65	258
1573.26	284
1581.86	414
1590.45	742
1599.02	1324
1607.59	1266
1616.14	692
1624.69	372
1633.22	254
1641.75	224
1650.26	212
1658.76	198
1667.26	192
1675.74	200
1684.21	202
1692.67	228
1701.12	214
1709.56	200
1717.99	206
1726.41	188
1734.82	186
1743.22	190
1751.61	176
1759.99	178
1768.36	178
1776.71	162
1785.06	182
1793.4	172
1801.73	196
1810.04	164
1818.35	164
1826.65	174
1834.94	162
1843.21	168
1851.48	152
1859.74	160
1867.98	176
1876.22	162
1884.45	172
1892.67	180
1900.87	184
1909.07	172
1917.26	176
1925.43	174
1933.6	194
1941.76	186
1949.91	162
1958.05	172
1966.17	172
1974.29	176
1982.4	180
1990.5	168
1998.59	178
2006.67	160
2014.74	166
2022.8	172
2030.85	182
2038.89	172
2046.92	174
2054.94	168
2062.95	168
2070.96	178
2078.95	176
2086.93	176
2094.91	180
2102.87	184
2110.83	184
2118.77	176
2126.71	176
2134.63	182
2142.55	172
2150.46	172
2158.35	182
2166.24	188
2174.12	190
2181.99	186
2189.85	192
2197.7	182
2205.55	184
2213.38	192
2221.2	182
2229.02	178
2236.82	178
2244.62	188
2252.4	174
2260.18	182
2267.95	174
2275.71	174
2283.46	198
2291.2	180
2298.93	178
2306.65	182
2314.37	208
2322.07	190
2329.77	196
2337.45	198
2345.13	188
2352.8	190
2360.46	184
2368.11	174
2375.75	196
2383.38	192
2391.01	194
2398.62	186
2406.23	182
2413.82	200
2421.41	194
2428.99	194
2436.56	190
2444.12	190
2449.79	192

File: ps-ppo-7jan25-0,0000-map2_Y04_X07.txt
182.393	690
192.79	582
203.174	502
213.542	422
223.897	592
234.238	1252
244.566	834
254.878	468
265.178	304
275.463	256
285.734	364
295.992	616
306.236	456
316.467	370
326.684	356
336.887	392
347.075	308
357.251	336
367.413	308
377.562	298
387.697	230
397.819	220
407.926	258
418.02	328
428.101	244
438.169	182
448.223	158
458.264	162
468.291	212
478.306	370
488.307	426
498.294	220
508.269	218
518.23	300
528.177	386
538.113	758
548.034	426
557.942	464
567.838	2670
577.72	1474
587.589	582
597.446	430
607.289	222
617.119	214
626.936	236
636.741	282
646.533	228
656.313	190
666.078	164
675.831	128
685.571	150
695.299	152
705.014	170
714.716	220
724.406	182
734.082	184
743.746	240
753.398	278
763.037	182
772.664	176
782.278	200
791.879	170
801.467	178
811.044	196
820.608	208
830.16	782
839.699	374
849.226	226
858.741	208
868.243	188
877.731	160
887.209	158
896.674	162
906.128	168
915.569	164
924.997	174
934.414	186
943.818	194
953.211	506
962.59	854
971.958	416
981.314	218
990.659	208
999.99	168
1009.31	170
1018.62	196
1027.91	248
1037.2	264
1046.47	206
1055.73	184
1064.98	178
1074.22	176
1083.44	178
1092.65	198
1101.86	222
1111.05	854
1120.22	370
1129.39	226
1138.54	232
1147.69	198
1156.82	224
1165.94	244
1175.05	238
1184.14	528
1193.23	440
1202.3	434
1211.36	282
1220.41	214
1229.45	320
1238.48	226
1247.5	216
1256.5	204
1265.49	226
1274.48	250
1283.45	312
1292.41	474
1301.36	1570
1310.29	1316
1319.22	518
1328.13	448
1337.04	330
1345.93	330
1354.81	308
1363.68	258
1372.54	544
1381.38	984
1390.22	366
1399.05	260
1407.86	250
1416.66	300
1425.46	408
1434.24	452
1443.01	468
1451.77	398
1460.52	342
1469.25	350
1477.98	350
1486.7	284
1495.4	258
1504.1	250
1512.78	244
1521.45	228
1530.11	274
1538.76	244
1547.41	242
1556.03	256
1564.65	266
1573.26	314
1581.86	450
1590.45	732
1599.02	1292
1607.59	1220
1616.14	732
1624.69	394
1633.22	282
1641.75	242
1650.26	226
1658.76	210
1667.26	202
1675.74	192
1684.21	218
1692.67	230
1701.12	224
1709.56	218
1717.99	216
1726.41	210
1734.82	194
1743.22	200
1751.61	184
1759.99	202
1768.36	178
1776.71	188
1785.06	196
1793.4	168
1801.73	184
1810.04	194
1818.35	180
1826.65	190
1834.94	180
1843.21	186
1851.48	168
1859.74	180
1867.98	190
1876.22	192
1884.45	184
1892.67	196
1900.87	194
1909.07	196
1917.26	180
1925.43	200
1933.6	180
1941.76	198
1949.91	190
1958.05	200
1966.17	162
1974.29	184
1982.4	184
1990.5	188
1998.59	190
2006.67	202
2014.74	198
2022.8	188
2030.85	188
2038.89	184
2046.92	182
2054.94	176
2062.95	200
2070.96	190
2078.95	194
2086.93	182
2094.91	192
2102.87	186
2110.83	184
2118.77	176
2126.71	188
2134.63	194
2142.55	182
2150.46	174
2158.35	186
2166.24	188
2174.12	194
2181.99	190
2189.85	192
2197.7	196
2205.55	206
2213.38	186
2221.2	186
2229.02	192
2236.82	182
2244.62	180
2252.4	186
2260.18	186
2267.95	196
2275.71	208
2283.46	196
2291.2	178
2298.93	178
2306.65	200
2314.37	200
2322.07	206
2329.77	190
2337.45	184
2345.13	198
2352.8	194
2360.46	192
2368.11	216
2375.75	192
2383.38	202
2391.01	194
2398.62	204
2406.23	204
2413.82	186
2421.41	182
2428.99	210
2436.56	204
2444.12	212
2449.79	190

File: ps-ppo-7jan25-0,0000-map2_Y04_X08.txt
182.393	690
192.79	616
203.174	526
213.542	448
223.897	582
234.238	1278
244.566	864
254.878	466
265.178	282
275.463	288
285.734	388
295.992	628
306.236	466
316.467	380
326.684	372
336.887	370
347.075	350
357.251	350
367.413	310
377.562	320
387.697	258
397.819	216
407.926	268
418.02	348
428.101	234
438.169	186
448.223	176
458.264	176
468.291	228
478.306	398
488.307	410
498.294	238
508.269	262
518.23	304
528.177	386
538.113	784
548.034	462
557.942	508
567.838	2668
577.72	1566
587.589	620
597.446	450
607.289	232
617.119	196
626.936	274
636.741	330
646.533	262
656.313	194
666.078	176
675.831	162
685.571	160
695.299	168
705.014	180
714.716	238
724.406	194
734.082	204
743.746	254
753.398	298
763.037	200
772.664	182
782.278	210
791.879	174
801.467	188
811.044	202
820.608	246
830.16	794
839.699	358
849.226	250
858.741	236
868.243	196
877.731	192
887.209	180
896.674	172
906.128	174
915.569	174
924.997	174
934.414	206
943.818	240
953.211	544
962.59	888
971.958	444
981.314	240
990.659	212
999.99	196
1009.31	178
1018.62	232
1027.91	264
1037.2	266
1046.47	244
1055.73	196
1064.98	204
1074.22	178
1083.44	204
1092.65	186
1101.86	258
1111.05	802
1120.22	366
1129.39	242
1138.54	242
1147.69	236
1156.82	236
1165.94	268
1175.05	270
1184.14	560
1193.23	456
1202.3	464
1211.36	280
1220.41	244
1229.45	318
1238.48	240
1247.5	218
1256.5	230
1265.49	246
1274.48	264
1283.45	356
1292.41	538
1301.36	1590
1310.29	1286
1319.22	548
1328.13	446
1337.04	348
1345.93	360
1354.81	358
1363.68	308
1372.54	530
1381.38	1000
1390.22	418
1399.05	258
1407.86	276
1416.66	304
1425.46	404
1434.24	444
1443.01	496
1451.77	398
1460.52	394
1469.25	364
1477.98	354
1486.7	332
1495.4	302
1504.1	260
1512.78	294
1521.45	268
1530.11	302
1538.76	262
1547.41	270
1556.03	300
1564.65	286
1573.26	344
1581.86	444
1590.45	764
1599.02	1366
1607.59	1228
1616.14	764
1624.69	360
1633.22	300
1641.75	266
1650.26	238
1658.76	236
1667.26	220
1675.74	218
1684.21	234
1692.67	240
1701.12	228
1709.56	220
1717.99	214
1726.41	222
1734.82	216
1743.22	212
1751.61	214
1759.99	208
1768.36	198
1776.71	194
1785.06	206
1793.4	204
1801.73	212
1810.04	214
1818.35	212
1826.65	206
1834.94	210
1843.21	210
1851.48	190
1859.74	202
1867.98	208
1876.22	202
1884.45	210
1892.67	216
1900.87	210
1909.07	212
1917.26	210
1925.43	206
1933.6	196
1941.76	216
1949.91	210
1958.05	212
1966.17	216
1974.29	216
1982.4	226
1990.5	212
1998.59	196
2006.67	212
2014.74	212
2022.8	218
2030.85	224
2038.89	200
2046.92	198
2054.94	220
2062.95	202
2070.96	192
2078.95	210
2086.93	208
2094.91	198
2102.87	206
2110.83	214
2118.77	210
2126.71	208
2134.63	198
2142.55	210
2150.46	188
2158.35	206
2166.24	212
2174.12	198
2181.99	204
2189.85	204
2197.7	202
2205.55	204
2213.38	198
2221.2	196
2229.02	190
2236.82	202
2244.62	204
2252.4	220
2260.18	214
2267.95	204
2275.71	218
2283.46	242
2291.2	192
2298.93	192
2306.65	210
2314.37	206
2322.07	210
2329.77	190
2337.45	190
2345.13	226
2352.8	198
2360.46	206
2368.11	208
2375.75	214
2383.38	220
2391.01	210
2398.62	220
2406.23	208
2413.82	216
2421.41	216
2428.99	194
2436.56	220
2444.12	212
2449.79	218

File: ps-ppo-7jan25-0,0000-map2_Y04_X09.txt
182.393	720
192.79	586
203.174	526
213.542	464
223.897	620
234.238	1296
244.566	914
254.878	484
265.178	338
275.463	282
285.734	386
295.992	612
306.236	450
316.467	378
326.684	372
336.887	398
347.075	356
357.251	382
367.413	344
377.562	316
387.697	250
397.819	254
407.926	304
418.02	364
428.101	248
438.169	200
448.223	186
458.264	186
468.291	254
478.306	406
488.307	436
498.294	252
508.269	274
518.23	344
528.177	414
538.113	796
548.034	502
557.942	528
567.838	2702
577.72	1566
587.589	588
597.446	446
607.289	260
617.119	242
626.936	284
636.741	362
646.533	270
656.313	212
666.078	192
675.831	178
685.571	168
695.299	158
705.014	188
714.716	256
724.406	222
734.082	214
743.746	284
753.398	304
763.037	216
772.664	212
782.278	228
791.879	208
801.467	204
811.044	230
820.608	248
830.16	806
839.699	396
849.226	260
858.741	252
868.243	210
877.731	198
887.209	194
896.674	184
906.128	194
915.569	188
924.997	206
934.414	208
943.818	264
953.211	554
962.59	900
971.958	470
981.314	266
990.659	254
999.99	222
1009.31	216
1018.62	254
1027.91	286
1037.2	278
1046.47	248
1055.73	220
1064.98	222
1074.22	214
1083.44	230
1092.65	226
1101.86	262
1111.05	830
1120.22	384
1129.39	262
1138.54	254
1147.69	256
1156.82	254
1165.94	286
1175.05	274
1184.14	580
1193.23	470
1202.3	478
1211.36	296
1220.41	254
1229.45	354
1238.48	250
1247.5	238
1256.5	250
1265.49	260
1274.48	292
1283.45	358
1292.41	516
1301.36	1574
1310.29	1378
1319.22	576
1328.13	472
1337.04	356
1345.93	366
1354.81	380
1363.68	322
1372.54	552
1381.38	1082
1390.22	406
1399.05	266
1407.86	282
1416.66	334
1425.46	448
1434.24	444
1443.01	494
1451.77	426
1460.52	394
1469.25	358
1477.98	366
1486.7	304
1495.4	324
1504.1	308
1512.78	282
1521.45	286
1530.11	296
1538.76	288
1547.41	292
1556.03	310
1564.65	280
1573.26	342
1581.86	456
1590.45	756
1599.02	1358
1607.59	1282
1616.14	756
1624.69	388
1633.22	312
1641.75	288
1650.26	260
1658.76	244
1667.26	240
1675.74	264
1684.21	248
1692.67	252
1701.12	246
1709.56	254
1717.99	248
1726.41	240
1734.82	206
1743.22	234
1751.61	228
1759.99	216
1768.36	228
1776.71	212
1785.06	236
1793.4	218
1801.73	210
1810.04	218
1818.35	230
1826.65	218
1834.94	234
1843.21	248
1851.48	230
1859.74	212
1867.98	232
1876.22	244
1884.45	222
1892.67	226
1900.87	224
1909.07	210
1917.26	226
1925.43	214
1933.6	238
1941.76	236
1949.91	228
1958.05	222
1966.17	240
1974.29	216
1982.4	228
1990.5	216
1998.59	210
2006.67	230
2014.74	228
2022.8	214
2030.85	224
2038.89	226
2046.92	222
2054.94	214
2062.95	228
2070.96	214
2078.95	216
2086.93	226
2094.91	240
2102.87	228
2110.83	226
2118.77	214
2126.71	246
2134.63	214
2142.55	200
2150.46	208
2158.35	228
2166.24	228
2174.12	212
2181.99	212
2189.85	216
2197.7	216
2205.55	232
2213.38	220
2221.2	224
2229.02	226
2236.82	210
2244.62	228
2252.4	240
2260.18	204
2267.95	228
2275.71	236
2283.46	222
2291.2	224
2298.93	226
2306.65	232
2314.37	244
2322.07	220
2329.77	224
2337.45	220
2345.13	230
2352.8	224
2360.46	234
2368.11	216
2375.75	216
2383.38	226
2391.01	226
2398.62	218
2406.23	228
2413.82	214
2421.41	220
2428.99	198
2436.56	212
2444.12	216
2449.79	220

File: ps-ppo-7jan25-0,0000-map2_Y04_X10.txt
182.393	698
192.79	606
203.174	514
213.542	470
223.897	636
234.238	1298
244.566	888
254.878	502
265.178	334
275.463	284
285.734	404
295.992	634
306.236	472
316.467	398
326.684	392
336.887	442
347.075	366
357.251	392
367.413	354
377.562	320
387.697	282
397.819	244
407.926	304
418.02	370
428.101	252
438.169	206
448.223	194
458.264	188
468.291	266
478.306	428
488.307	478
498.294	234
508.269	266
518.23	324
528.177	406
538.113	828
548.034	446
557.942	508
567.838	2698
577.72	1536
587.589	598
597.446	454
607.289	254
617.119	234
626.936	282
636.741	340
646.533	272
656.313	230
666.078	198
675.831	182
685.571	180
695.299	192
705.014	204
714.716	264
724.406	232
734.082	232
743.746	304
753.398	320
763.037	212
772.664	226
782.278	246
791.879	220
801.467	218
811.044	234
820.608	246
830.16	830
839.699	436
849.226	280
858.741	250
868.243	230
877.731	206
887.209	198
896.674	204
906.128	212
915.569	200
924.997	212
934.414	228
943.818	282
953.211	556
962.59	906
971.958	474
981.314	262
990.659	248
999.99	226
1009.31	222
1018.62	258
1027.91	302
1037.2	292
1046.47	264
1055.73	230
1064.98	230
1074.22	224
1083.44	218
1092.65	220
1101.86	256
1111.05	858
1120.22	428
1129.39	266
1138.54	274
1147.69	242
1156.82	268
1165.94	294
1175.05	304
1184.14	592
1193.23	456
1202.3	490
1211.36	344
1220.41	262
1229.45	372
1238.48	286
1247.5	240
1256.5	252
1265.49	264
1274.48	276
1283.45	370
1292.41	526
1301.36	1578
1310.29	1368
1319.22	568
1328.13	500
1337.04	366
1345.93	378
1354.81	370
1363.68	312
1372.54	556
1381.38	1092
1390.22	404
1399.05	306
1407.86	322
1416.66	350
1425.46	416
1434.24	512
1443.01	528
1451.77	422
1460.52	398
1469.25	390
1477.98	388
1486.7	340
1495.4	290
1504.1	300
1512.78	284
1521.45	314
1530.11	306
1538.76	292
1547.41	284
1556.03	324
1564.65	328
1573.26	348
1581.86	502
1590.45	786
1599.02	1356
1607.59	1292
1616.14	772
1624.69	420
1633.22	320
1641.75	290
1650.26	286
1658.76	254
1667.26	256
1675.74	244
1684.21	238
1692.67	272
1701.12	290
1709.56	270
1717.99	250
1726.41	258
1734.82	220
1743.22	240
1751.61	252
1759.99	234
1768.36	220
1776.71	226
1785.06	250
1793.4	232
1801.73	236
1810.04	226
1818.35	244
1826.65	222
1834.94	230
1843.21	238
1851.48	232
1859.74	222
1867.98	244
1876.22	234
1884.45	234
1892.67	226
1900.87	228
1909.07	238
1917.26	228
1925.43	236
1933.6	256
1941.76	230
1949.91	246
1958.05	224
1966.17	236
1974.29	232
1982.4	248
1990.5	230
1998.59	234
2006.67	228
2014.74	236
2022.8	252
2030.85	212
2038.89	222
2046.92	234
2054.94	234
2062.95	228
2070.96	228
2078.95	206
2086.93	234
2094.91	218
2102.87	226
2110.83	230
2118.77	226
2126.71	240
2134.63	234
2142.55	218
2150.46	232
2158.35	226
2166.24	222
2174.12	244
2181.99	236
2189.85	220
2197.7	220
2205.55	222
2213.38	228
2221.2	250
2229.02	220
2236.82	210
2244.62	254
2252.4	228
2260.18	220
2267.95	244
2275.71	246
2283.46	230
2291.2	218
2298.93	228
2306.65	230
2314.37	238
2322.07	256
2329.77	232
2337.45	220
2345.13	236
2352.8	238
2360.46	220
2368.11	242
2375.75	244
2383.38	236
2391.01	232
2398.62	234
2406.23	230
2413.82	226
2421.41	232
2428.99	232
2436.56	212
2444.12	240
2449.79	222

File: ps-ppo-7jan25-0,0000-map2_Y05_X01.txt
182.393	720
192.79	604
203.174	514
213.542	444
223.897	602
234.238	1282
244.566	908
254.878	480
265.178	326
275.463	290
285.734	384
295.992	640
306.236	492
316.467	392
326.684	374
336.887	394
347.075	344
357.251	382
367.413	324
377.562	308
387.697	244
397.819	226
407.926	286
418.02	330
428.101	240
438.169	178
448.223	188
458.264	182
468.291	264
478.306	410
488.307	460
498.294	234
508.269	258
518.23	304
528.177	392
538.113	802
548.034	458
557.942	550
567.838	2718
577.72	1582
587.589	610
597.446	440
607.289	246
617.119	220
626.936	272
636.741	320
646.533	256
656.313	228
666.078	188
675.831	176
685.571	174
695.299	184
705.014	174
714.716	256
724.406	200
734.082	218
743.746	294
753.398	280
763.037	208
772.664	214
782.278	240
791.879	212
801.467	202
811.044	214
820.608	260
830.16	836
839.699	398
849.226	278
858.741	228
868.243	198
877.731	190
887.209	194
896.674	182
906.128	170
915.569	176
924.997	188
934.414	202
943.818	248
953.211	558
962.59	862
971.958	442
981.314	248
990.659	220
999.99	214
1009.31	210
1018.62	246
1027.91	262
1037.2	278
1046.47	242
1055.73	214
1064.98	196
1074.22	192
1083.44	208
1092.65	212
1101.86	234
1111.05	828
1120.22	392
1129.39	254
1138.54	252
1147.69	222
1156.82	258
1165.94	274
1175.05	284
1184.14	590
1193.23	440
1202.3	494
1211.36	302
1220.41	258
1229.45	348
1238.48	254
1247.5	230
1256.5	226
1265.49	256
1274.48	276
1283.45	358
1292.41	538
1301.36	1596
1310.29	1306
1319.22	524
1328.13	452
1337.04	364
1345.93	384
1354.81	354
1363.68	322
1372.54	556
1381.38	1064
1390.22	402
1399.05	294
1407.86	288
1416.66	328
1425.46	418
1434.24	466
1443.01	488
1451.77	398
1460.52	386
1469.25	406
1477.98	390
1486.7	302
1495.4	284
1504.1	286
1512.78	312
1521.45	276
1530.11	290
1538.76	278
1547.41	290
1556.03	294
1564.65	302
1573.26	364
1581.86	460
1590.45	768
1599.02	1378
1607.59	1338
1616.14	728
1624.69	410
1633.22	302
1641.75	258
1650.26	250
1658.76	242
1667.26	242
1675.74	240
1684.21	240
1692.67	254
1701.12	248
1709.56	224
1717.99	256
1726.41	220
1734.82	204
1743.22	210
1751.61	220
1759.99	216
1768.36	210
1776.71	210
1785.06	196
1793.4	208
1801.73	228
1810.04	226
1818.35	194
1826.65	242
1834.94	208
1843.21	218
1851.48	224
1859.74	222
1867.98	202
1876.22	228
1884.45	214
1892.67	220
1900.87	216
1909.07	212
1917.26	220
1925.43	218
1933.6	214
1941.76	220
1949.91	222
1958.05	204
1966.17	222
1974.29	204
1982.4	226
1990.5	204
1998.59	212
2006.67	212
2014.74	224
2022.8	214
2030.85	206
2038.89	212
2046.92	206
2054.94	212
2062.95	208
2070.96	214
2078.95	220
2086.93	218
2094.91	222
2102.87	224
2110.83	232
2118.77	214
2126.71	222
2134.63	228
2142.55	196
2150.46	226
2158.35	244
2166.24	208
2174.12	228
2181.99	210
2189.85	208
2197.7	230
2205.55	214
2213.38	228
2221.2	208
2229.02	214
2236.82	194
2244.62	204
2252.4	208
2260.18	226
2267.95	228
2275.71	206
2283.46	228
2291.2	232
2298.93	220
2306.65	218
2314.37	218
2322.07	224
2329.77	226
2337.45	228
2345.13	216
2352.8	216
2360.46	236
2368.11	222
2375.75	222
2383.38	222
2391.01	214
2398.62	228
2406.23	232
2413.82	210
2421.41	194
2428.99	210
2436.56	220
2444.12	226
2449.79	208