Folder: NRC_SU25_Spectral_Classification/Jesse_Dataset_v2/Pure Raman/Polypropylene oxide/785nm (part 6)

File: ps-ppo-6jan25-0,0000-map2_Y07_X04.txt
204.377	328
211.048	298
217.712	298
224.369	410
231.019	744
237.661	760
244.297	530
250.924	346
257.546	242
264.16	174
270.766	164
277.365	176
283.958	202
290.543	336
297.121	354
303.693	270
310.256	220
316.813	204
323.362	192
329.905	222
336.441	220
342.969	172
349.491	186
356.006	182
362.513	168
369.014	180
375.508	166
381.994	136
388.473	130
394.947	110
401.412	118
407.871	132
414.323	178
420.768	136
427.206	110
433.637	80
440.062	78
446.479	80
452.89	74
459.293	70
465.691	98
472.081	140
478.463	196
484.84	248
491.21	156
497.573	96
503.929	88
510.279	136
516.621	150
522.957	134
529.287	204
535.609	360
541.925	352
548.234	188
554.536	190
560.832	364
567.12	1248
573.403	1648
579.679	424
585.948	286
592.211	230
598.466	186
604.715	96
610.958	86
617.194	82
623.424	98
629.647	124
635.864	134
642.074	118
648.276	88
654.473	74
660.664	70
666.847	56
673.025	56
679.195	54
685.36	58
691.517	52
697.669	56
703.814	58
709.953	68
716.085	92
722.21	68
728.33	70
734.443	72
740.549	82
746.65	128
752.743	106
758.831	82
764.912	60
770.986	62
777.055	72
783.117	66
789.173	64
795.222	60
801.265	60
807.302	74
813.333	62
819.357	78
825.376	116
831.387	404
837.392	210
843.392	92
849.386	82
855.372	82
861.353	72
867.328	66
873.296	54
879.258	60
885.214	58
891.164	60
897.108	52
903.046	50
908.977	48
914.903	46
920.822	54
926.735	58
932.643	50
938.543	60
944.439	82
950.328	130
956.21	266
962.088	312
967.958	196
973.824	106
979.682	76
985.534	68
991.382	66
997.222	62
1003.06	62
1008.89	58
1014.71	66
1020.53	74
1026.34	74
1032.14	98
1037.94	92
1043.73	70
1049.52	62
1055.3	58
1061.08	52
1066.85	58
1072.61	62
1078.37	58
1084.12	60
1089.87	60
1095.61	66
1101.34	74
1107.07	130
1112.8	292
1118.51	136
1124.22	92
1129.93	80
1135.63	80
1141.32	84
1147.01	74
1152.69	68
1158.37	78
1164.04	88
1169.71	84
1175.37	88
1181.02	122
1186.67	206
1192.31	148
1197.95	146
1203.58	162
1209.2	118
1214.82	86
1220.44	76
1226.05	106
1231.65	108
1237.25	88
1242.84	82
1248.42	82
1254	84
1259.58	80
1265.15	80
1270.71	88
1276.27	98
1281.82	110
1287.37	136
1292.91	154
1298.45	298
1303.98	644
1309.5	420
1315.02	218
1320.53	166
1326.04	166
1331.54	150
1337.04	128
1342.53	132
1348.02	136
1353.5	152
1358.98	134
1364.45	128
1369.91	140
1375.37	292
1380.82	340
1386.27	236
1391.71	148
1397.15	130
1402.58	114
1408.01	112
1413.43	118
1418.85	136
1424.26	150
1429.66	174
1435.06	186
1440.46	184
1445.85	166
1451.23	152
1456.61	138
1461.98	144
1467.35	128
1472.71	136
1478.07	130
1483.42	124
1488.77	110
1494.11	100
1499.45	96
1504.78	110
1510.11	104
1515.43	98
1520.74	98
1526.05	94
1531.36	98
1536.66	102
1541.95	88
1547.24	88
1552.52	102
1557.8	92
1563.08	94
1568.35	104
1573.61	114
1578.87	118
1584.12	164
1589.37	200
1594.61	294
1599.85	382
1605.08	364
1610.31	292
1615.53	208
1620.75	140
1625.96	110
1631.17	104
1636.37	94
1641.57	82
1646.76	82
1651.95	80
1657.13	68
1662.31	76
1667.48	76
1672.65	66
1677.81	70
1682.97	66
1688.12	72
1693.27	62
1698.41	66
1702.26	72

File: ps-ppo-6jan25-0,0000-map2_Y07_X05.txt
204.377	362
211.048	314
217.712	316
224.369	446
231.019	846
237.661	854
244.297	572
250.924	372
257.546	250
264.16	196
270.766	160
277.365	160
283.958	202
290.543	350
297.121	408
303.693	310
310.256	242
316.813	224
323.362	214
329.905	232
336.441	240
342.969	192
349.491	184
356.006	204
362.513	190
369.014	174
375.508	176
381.994	140
388.473	134
394.947	122
401.412	120
407.871	142
414.323	212
420.768	146
427.206	108
433.637	96
440.062	74
446.479	82
452.89	72
459.293	88
465.691	98
472.081	148
478.463	204
484.84	246
491.21	156
497.573	110
503.929	96
510.279	154
516.621	162
522.957	154
529.287	226
535.609	392
541.925	362
548.234	212
554.536	202
560.832	386
567.12	1334
573.403	1798
579.679	442
585.948	306
592.211	244
598.466	188
604.715	102
610.958	98
617.194	80
623.424	94
629.647	120
635.864	144
642.074	124
648.276	96
654.473	76
660.664	66
666.847	64
673.025	56
679.195	64
685.36	62
691.517	58
697.669	66
703.814	60
709.953	76
716.085	94
722.21	72
728.33	74
734.443	74
740.549	90
746.65	130
752.743	112
758.831	86
764.912	58
770.986	68
777.055	70
783.117	82
789.173	72
795.222	62
801.265	64
807.302	74
813.333	72
819.357	80
825.376	128
831.387	448
837.392	224
843.392	110
849.386	86
855.372	84
861.353	80
867.328	58
873.296	68
879.258	62
885.214	62
891.164	48
897.108	54
903.046	54
908.977	54
914.903	54
920.822	62
926.735	56
932.643	58
938.543	66
944.439	84
950.328	140
956.21	282
962.088	318
967.958	212
973.824	126
979.682	80
985.534	72
991.382	72
997.222	58
1003.06	62
1008.89	58
1014.71	64
1020.53	72
1026.34	84
1032.14	102
1037.94	88
1043.73	74
1049.52	68
1055.3	64
1061.08	64
1066.85	60
1072.61	62
1078.37	72
1084.12	62
1089.87	62
1095.61	70
1101.34	68
1107.07	138
1112.8	324
1118.51	150
1124.22	94
1129.93	78
1135.63	78
1141.32	78
1147.01	76
1152.69	78
1158.37	72
1164.04	96
1169.71	76
1175.37	98
1181.02	134
1186.67	222
1192.31	154
1197.95	144
1203.58	170
1209.2	122
1214.82	90
1220.44	84
1226.05	114
1231.65	132
1237.25	92
1242.84	92
1248.42	96
1254	84
1259.58	82
1265.15	96
1270.71	92
1276.27	100
1281.82	128
1287.37	148
1292.91	172
1298.45	342
1303.98	698
1309.5	456
1315.02	242
1320.53	168
1326.04	166
1331.54	154
1337.04	146
1342.53	134
1348.02	154
1353.5	164
1358.98	128
1364.45	136
1369.91	156
1375.37	330
1380.82	388
1386.27	250
1391.71	146
1397.15	136
1402.58	134
1408.01	120
1413.43	142
1418.85	144
1424.26	178
1429.66	166
1435.06	184
1440.46	192
1445.85	166
1451.23	164
1456.61	148
1461.98	160
1467.35	128
1472.71	148
1478.07	140
1483.42	116
1488.77	116
1494.11	108
1499.45	102
1504.78	104
1510.11	98
1515.43	102
1520.74	94
1526.05	104
1531.36	106
1536.66	98
1541.95	96
1547.24	106
1552.52	110
1557.8	96
1563.08	104
1568.35	108
1573.61	106
1578.87	136
1584.12	158
1589.37	216
1594.61	310
1599.85	428
1605.08	418
1610.31	318
1615.53	242
1620.75	148
1625.96	134
1631.17	102
1636.37	100
1641.57	82
1646.76	76
1651.95	88
1657.13	88
1662.31	76
1667.48	82
1672.65	76
1677.81	78
1682.97	64
1688.12	72
1693.27	74
1698.41	72
1702.26	84

File: ps-ppo-6jan25-0,0000-map2_Y07_X07.txt
204.377	380
211.048	334
217.712	336
224.369	474
231.019	866
237.661	906
244.297	622
250.924	400
257.546	270
264.16	206
270.766	180
277.365	174
283.958	234
290.543	370
297.121	414
303.693	322
310.256	266
316.813	214
323.362	234
329.905	244
336.441	256
342.969	206
349.491	200
356.006	216
362.513	184
369.014	190
375.508	180
381.994	148
388.473	138
394.947	118
401.412	126
407.871	144
414.323	208
420.768	168
427.206	124
433.637	96
440.062	88
446.479	74
452.89	82
459.293	76
465.691	102
472.081	150
478.463	234
484.84	294
491.21	172
497.573	116
503.929	102
510.279	156
516.621	178
522.957	158
529.287	224
535.609	386
541.925	420
548.234	196
554.536	216
560.832	414
567.12	1426
573.403	1970
579.679	480
585.948	330
592.211	276
598.466	186
604.715	118
610.958	88
617.194	94
623.424	98
629.647	128
635.864	152
642.074	118
648.276	98
654.473	84
660.664	72
666.847	66
673.025	60
679.195	60
685.36	64
691.517	64
697.669	56
703.814	62
709.953	74
716.085	96
722.21	86
728.33	76
734.443	76
740.549	92
746.65	148
752.743	124
758.831	84
764.912	72
770.986	70
777.055	80
783.117	82
789.173	72
795.222	56
801.265	62
807.302	72
813.333	70
819.357	84
825.376	132
831.387	484
837.392	238
843.392	90
849.386	92
855.372	88
861.353	78
867.328	66
873.296	70
879.258	68
885.214	52
891.164	58
897.108	52
903.046	56
908.977	62
914.903	60
920.822	54
926.735	60
932.643	60
938.543	64
944.439	94
950.328	150
956.21	298
962.088	334
967.958	206
973.824	136
979.682	80
985.534	68
991.382	70
997.222	62
1003.06	62
1008.89	60
1014.71	66
1020.53	76
1026.34	90
1032.14	98
1037.94	94
1043.73	80
1049.52	66
1055.3	64
1061.08	66
1066.85	64
1072.61	60
1078.37	60
1084.12	66
1089.87	66
1095.61	64
1101.34	76
1107.07	144
1112.8	332
1118.51	152
1124.22	102
1129.93	84
1135.63	78
1141.32	90
1147.01	72
1152.69	72
1158.37	88
1164.04	82
1169.71	82
1175.37	96
1181.02	134
1186.67	236
1192.31	172
1197.95	148
1203.58	180
1209.2	132
1214.82	84
1220.44	86
1226.05	116
1231.65	134
1237.25	94
1242.84	82
1248.42	78
1254	82
1259.58	94
1265.15	100
1270.71	102
1276.27	110
1281.82	124
1287.37	156
1292.91	180
1298.45	356
1303.98	768
1309.5	508
1315.02	256
1320.53	188
1326.04	178
1331.54	166
1337.04	148
1342.53	150
1348.02	158
1353.5	162
1358.98	130
1364.45	156
1369.91	172
1375.37	342
1380.82	434
1386.27	268
1391.71	148
1397.15	148
1402.58	134
1408.01	142
1413.43	134
1418.85	148
1424.26	186
1429.66	174
1435.06	200
1440.46	192
1445.85	194
1451.23	168
1456.61	160
1461.98	142
1467.35	136
1472.71	142
1478.07	140
1483.42	134
1488.77	118
1494.11	114
1499.45	118
1504.78	118
1510.11	106
1515.43	104
1520.74	102
1526.05	102
1531.36	112
1536.66	98
1541.95	100
1547.24	108
1552.52	104
1557.8	110
1563.08	116
1568.35	110
1573.61	130
1578.87	138
1584.12	162
1589.37	246
1594.61	326
1599.85	450
1605.08	430
1610.31	346
1615.53	244
1620.75	170
1625.96	118
1631.17	108
1636.37	90
1641.57	90
1646.76	86
1651.95	90
1657.13	76
1662.31	80
1667.48	78
1672.65	76
1677.81	76
1682.97	74
1688.12	74
1693.27	70
1698.41	76
1702.26	78

File: ps-ppo-6jan25-0,0000-map2_Y07_X08.txt
204.377	356
211.048	330
217.712	330
224.369	474
231.019	884
237.661	894
244.297	604
250.924	406
257.546	268
264.16	192
270.766	190
277.365	190
283.958	238
290.543	340
297.121	438
303.693	312
310.256	244
316.813	224
323.362	216
329.905	222
336.441	246
342.969	212
349.491	202
356.006	212
362.513	196
369.014	190
375.508	186
381.994	138
388.473	136
394.947	118
401.412	126
407.871	160
414.323	208
420.768	156
427.206	118
433.637	102
440.062	76
446.479	76
452.89	76
459.293	74
465.691	94
472.081	154
478.463	202
484.84	276
491.21	176
497.573	106
503.929	100
510.279	172
516.621	170
522.957	150
529.287	220
535.609	408
541.925	418
548.234	220
554.536	204
560.832	380
567.12	1410
573.403	1938
579.679	464
585.948	310
592.211	252
598.466	198
604.715	118
610.958	94
617.194	90
623.424	110
629.647	130
635.864	152
642.074	112
648.276	106
654.473	90
660.664	72
666.847	58
673.025	56
679.195	58
685.36	58
691.517	62
697.669	56
703.814	68
709.953	80
716.085	98
722.21	70
728.33	74
734.443	74
740.549	84
746.65	130
752.743	112
758.831	88
764.912	62
770.986	74
777.055	70
783.117	70
789.173	68
795.222	58
801.265	62
807.302	70
813.333	78
819.357	82
825.376	128
831.387	478
837.392	252
843.392	98
849.386	98
855.372	80
861.353	74
867.328	70
873.296	56
879.258	62
885.214	64
891.164	48
897.108	50
903.046	56
908.977	54
914.903	56
920.822	60
926.735	60
932.643	66
938.543	72
944.439	98
950.328	154
956.21	286
962.088	348
967.958	212
973.824	126
979.682	84
985.534	70
991.382	74
997.222	60
1003.06	54
1008.89	62
1014.71	60
1020.53	74
1026.34	82
1032.14	88
1037.94	88
1043.73	82
1049.52	66
1055.3	60
1061.08	66
1066.85	62
1072.61	64
1078.37	60
1084.12	64
1089.87	64
1095.61	72
1101.34	70
1107.07	146
1112.8	326
1118.51	148
1124.22	100
1129.93	90
1135.63	84
1141.32	86
1147.01	70
1152.69	78
1158.37	84
1164.04	86
1169.71	82
1175.37	92
1181.02	138
1186.67	238
1192.31	174
1197.95	148
1203.58	176
1209.2	128
1214.82	90
1220.44	84
1226.05	98
1231.65	128
1237.25	88
1242.84	90
1248.42	78
1254	80
1259.58	84
1265.15	98
1270.71	86
1276.27	106
1281.82	126
1287.37	146
1292.91	188
1298.45	354
1303.98	718
1309.5	518
1315.02	260
1320.53	188
1326.04	182
1331.54	174
1337.04	138
1342.53	144
1348.02	158
1353.5	158
1358.98	148
1364.45	140
1369.91	168
1375.37	336
1380.82	402
1386.27	264
1391.71	156
1397.15	138
1402.58	138
1408.01	120
1413.43	156
1418.85	156
1424.26	172
1429.66	174
1435.06	184
1440.46	204
1445.85	182
1451.23	160
1456.61	166
1461.98	154
1467.35	148
1472.71	150
1478.07	138
1483.42	136
1488.77	118
1494.11	114
1499.45	120
1504.78	100
1510.11	100
1515.43	112
1520.74	96
1526.05	102
1531.36	106
1536.66	104
1541.95	110
1547.24	106
1552.52	104
1557.8	110
1563.08	94
1568.35	110
1573.61	116
1578.87	136
1584.12	164
1589.37	226
1594.61	336
1599.85	412
1605.08	428
1610.31	346
1615.53	238
1620.75	162
1625.96	128
1631.17	112
1636.37	96
1641.57	88
1646.76	96
1651.95	74
1657.13	82
1662.31	84
1667.48	74
1672.65	78
1677.81	72
1682.97	72
1688.12	84
1693.27	78
1698.41	80
1702.26	64

File: ps-ppo-6jan25-0,0000-map2_Y07_X10.txt
204.377	388
211.048	358
217.712	342
224.369	464
231.019	892
237.661	912
244.297	630
250.924	396
257.546	266
264.16	202
270.766	184
277.365	176
283.958	222
290.543	370
297.121	418
303.693	340
310.256	260
316.813	228
323.362	224
329.905	258
336.441	272
342.969	210
349.491	194
356.006	214
362.513	192
369.014	200
375.508	198
381.994	148
388.473	142
394.947	130
401.412	126
407.871	150
414.323	210
420.768	174
427.206	112
433.637	100
440.062	90
446.479	88
452.89	78
459.293	90
465.691	98
472.081	148
478.463	224
484.84	292
491.21	172
497.573	112
503.929	92
510.279	150
516.621	168
522.957	156
529.287	214
535.609	404
541.925	394
548.234	220
554.536	210
560.832	402
567.12	1470
573.403	1986
579.679	480
585.948	320
592.211	266
598.466	206
604.715	116
610.958	98
617.194	94
623.424	104
629.647	128
635.864	142
642.074	128
648.276	100
654.473	92
660.664	68
666.847	64
673.025	64
679.195	68
685.36	60
691.517	64
697.669	60
703.814	56
709.953	74
716.085	108
722.21	80
728.33	68
734.443	82
740.549	86
746.65	150
752.743	114
758.831	88
764.912	72
770.986	68
777.055	74
783.117	70
789.173	66
795.222	68
801.265	66
807.302	74
813.333	72
819.357	80
825.376	128
831.387	482
837.392	234
843.392	104
849.386	98
855.372	90
861.353	80
867.328	74
873.296	64
879.258	58
885.214	54
891.164	54
897.108	56
903.046	56
908.977	64
914.903	58
920.822	54
926.735	54
932.643	70
938.543	70
944.439	96
950.328	150
956.21	296
962.088	350
967.958	228
973.824	142
979.682	84
985.534	74
991.382	74
997.222	60
1003.06	68
1008.89	68
1014.71	66
1020.53	80
1026.34	88
1032.14	100
1037.94	98
1043.73	92
1049.52	76
1055.3	62
1061.08	66
1066.85	62
1072.61	56
1078.37	68
1084.12	72
1089.87	66
1095.61	70
1101.34	74
1107.07	142
1112.8	354
1118.51	156
1124.22	106
1129.93	88
1135.63	70
1141.32	82
1147.01	80
1152.69	66
1158.37	84
1164.04	94
1169.71	78
1175.37	102
1181.02	136
1186.67	244
1192.31	170
1197.95	148
1203.58	154
1209.2	124
1214.82	90
1220.44	86
1226.05	114
1231.65	132
1237.25	98
1242.84	90
1248.42	82
1254	80
1259.58	84
1265.15	94
1270.71	98
1276.27	112
1281.82	120
1287.37	146
1292.91	200
1298.45	350
1303.98	742
1309.5	506
1315.02	240
1320.53	194
1326.04	184
1331.54	168
1337.04	146
1342.53	148
1348.02	166
1353.5	168
1358.98	152
1364.45	142
1369.91	164
1375.37	342
1380.82	406
1386.27	266
1391.71	168
1397.15	138
1402.58	136
1408.01	132
1413.43	146
1418.85	160
1424.26	176
1429.66	188
1435.06	208
1440.46	214
1445.85	198
1451.23	168
1456.61	156
1461.98	154
1467.35	160
1472.71	146
1478.07	144
1483.42	128
1488.77	120
1494.11	124
1499.45	116
1504.78	104
1510.11	108
1515.43	102
1520.74	108
1526.05	106
1531.36	106
1536.66	98
1541.95	100
1547.24	118
1552.52	102
1557.8	116
1563.08	106
1568.35	116
1573.61	124
1578.87	144
1584.12	166
1589.37	218
1594.61	336
1599.85	452
1605.08	468
1610.31	336
1615.53	254
1620.75	166
1625.96	126
1631.17	106
1636.37	94
1641.57	82
1646.76	86
1651.95	84
1657.13	84
1662.31	76
1667.48	84
1672.65	72
1677.81	78
1682.97	74
1688.12	76
1693.27	76
1698.41	74
1702.26	78

File: ps-ppo-6jan25-0,0000-map2_Y08_X00.txt
204.377	318
211.048	316
217.712	308
224.369	466
231.019	792
237.661	824
244.297	576
250.924	358
257.546	234
264.16	194
270.766	170
277.365	172
283.958	216
290.543	340
297.121	392
303.693	294
310.256	238
316.813	218
323.362	212
329.905	212
336.441	218
342.969	204
349.491	208
356.006	184
362.513	176
369.014	180
375.508	170
381.994	136
388.473	128
394.947	120
401.412	130
407.871	150
414.323	196
420.768	148
427.206	112
433.637	86
440.062	84
446.479	74
452.89	66
459.293	80
465.691	98
472.081	144
478.463	214
484.84	266
491.21	166
497.573	112
503.929	98
510.279	144
516.621	162
522.957	140
529.287	216
535.609	368
541.925	386
548.234	206
554.536	190
560.832	378
567.12	1288
573.403	1794
579.679	458
585.948	298
592.211	244
598.466	196
604.715	128
610.958	86
617.194	82
623.424	102
629.647	116
635.864	134
642.074	130
648.276	84
654.473	82
660.664	68
666.847	68
673.025	54
679.195	66
685.36	66
691.517	62
697.669	46
703.814	66
709.953	76
716.085	90
722.21	76
728.33	74
734.443	68
740.549	80
746.65	144
752.743	106
758.831	86
764.912	68
770.986	60
777.055	74
783.117	74
789.173	70
795.222	58
801.265	60
807.302	74
813.333	72
819.357	74
825.376	126
831.387	430
837.392	202
843.392	92
849.386	94
855.372	84
861.353	80
867.328	68
873.296	62
879.258	60
885.214	60
891.164	60
897.108	54
903.046	58
908.977	52
914.903	56
920.822	56
926.735	66
932.643	58
938.543	68
944.439	84
950.328	140
956.21	278
962.088	302
967.958	192
973.824	118
979.682	74
985.534	68
991.382	72
997.222	64
1003.06	60
1008.89	60
1014.71	60
1020.53	66
1026.34	80
1032.14	90
1037.94	90
1043.73	82
1049.52	68
1055.3	66
1061.08	62
1066.85	64
1072.61	60
1078.37	60
1084.12	56
1089.87	60
1095.61	66
1101.34	80
1107.07	128
1112.8	342
1118.51	152
1124.22	96
1129.93	94
1135.63	74
1141.32	92
1147.01	66
1152.69	82
1158.37	72
1164.04	96
1169.71	80
1175.37	92
1181.02	142
1186.67	208
1192.31	158
1197.95	136
1203.58	162
1209.2	118
1214.82	96
1220.44	80
1226.05	108
1231.65	124
1237.25	90
1242.84	84
1248.42	88
1254	82
1259.58	80
1265.15	96
1270.71	100
1276.27	108
1281.82	106
1287.37	132
1292.91	178
1298.45	316
1303.98	692
1309.5	462
1315.02	238
1320.53	178
1326.04	178
1331.54	150
1337.04	130
1342.53	144
1348.02	154
1353.5	146
1358.98	140
1364.45	148
1369.91	164
1375.37	302
1380.82	394
1386.27	258
1391.71	152
1397.15	130
1402.58	136
1408.01	130
1413.43	136
1418.85	150
1424.26	166
1429.66	184
1435.06	176
1440.46	204
1445.85	174
1451.23	166
1456.61	160
1461.98	152
1467.35	140
1472.71	140
1478.07	146
1483.42	126
1488.77	120
1494.11	108
1499.45	96
1504.78	122
1510.11	102
1515.43	100
1520.74	104
1526.05	104
1531.36	106
1536.66	102
1541.95	106
1547.24	108
1552.52	106
1557.8	102
1563.08	104
1568.35	110
1573.61	112
1578.87	128
1584.12	162
1589.37	208
1594.61	314
1599.85	424
1605.08	414
1610.31	334
1615.53	222
1620.75	146
1625.96	124
1631.17	100
1636.37	98
1641.57	84
1646.76	88
1651.95	80
1657.13	78
1662.31	82
1667.48	74
1672.65	72
1677.81	76
1682.97	74
1688.12	78
1693.27	78
1698.41	70
1702.26	74

File: ps-ppo-6jan25-0,0000-map2_Y08_X02.txt
204.377	368
211.048	318
217.712	324
224.369	444
231.019	834
237.661	874
244.297	620
250.924	404
257.546	262
264.16	210
270.766	186
277.365	168
283.958	218
290.543	340
297.121	418
303.693	318
310.256	236
316.813	228
323.362	204
329.905	252
336.441	254
342.969	208
349.491	198
356.006	194
362.513	184
369.014	198
375.508	192
381.994	156
388.473	132
394.947	118
401.412	128
407.871	140
414.323	216
420.768	152
427.206	116
433.637	104
440.062	80
446.479	84
452.89	78
459.293	74
465.691	102
472.081	146
478.463	196
484.84	276
491.21	166
497.573	114
503.929	88
510.279	154
516.621	158
522.957	156
529.287	236
535.609	360
541.925	394
548.234	204
554.536	202
560.832	374
567.12	1360
573.403	1876
579.679	476
585.948	302
592.211	262
598.466	188
604.715	122
610.958	86
617.194	86
623.424	106
629.647	138
635.864	132
642.074	120
648.276	100
654.473	88
660.664	68
666.847	62
673.025	64
679.195	60
685.36	66
691.517	62
697.669	60
703.814	64
709.953	86
716.085	90
722.21	82
728.33	70
734.443	74
740.549	80
746.65	140
752.743	110
758.831	86
764.912	70
770.986	68
777.055	78
783.117	80
789.173	70
795.222	58
801.265	60
807.302	80
813.333	76
819.357	86
825.376	132
831.387	438
837.392	238
843.392	104
849.386	90
855.372	82
861.353	80
867.328	58
873.296	66
879.258	60
885.214	50
891.164	58
897.108	50
903.046	66
908.977	54
914.903	60
920.822	54
926.735	60
932.643	62
938.543	66
944.439	98
950.328	140
956.21	270
962.088	342
967.958	218
973.824	130
979.682	86
985.534	74
991.382	72
997.222	66
1003.06	70
1008.89	64
1014.71	64
1020.53	72
1026.34	86
1032.14	84
1037.94	92
1043.73	86
1049.52	70
1055.3	74
1061.08	58
1066.85	66
1072.61	60
1078.37	54
1084.12	64
1089.87	60
1095.61	64
1101.34	74
1107.07	144
1112.8	346
1118.51	138
1124.22	104
1129.93	78
1135.63	86
1141.32	84
1147.01	80
1152.69	76
1158.37	92
1164.04	92
1169.71	92
1175.37	98
1181.02	140
1186.67	234
1192.31	160
1197.95	138
1203.58	168
1209.2	120
1214.82	94
1220.44	96
1226.05	118
1231.65	136
1237.25	96
1242.84	88
1248.42	88
1254	88
1259.58	92
1265.15	88
1270.71	102
1276.27	108
1281.82	126
1287.37	148
1292.91	188
1298.45	340
1303.98	750
1309.5	490
1315.02	262
1320.53	188
1326.04	182
1331.54	168
1337.04	144
1342.53	136
1348.02	160
1353.5	156
1358.98	144
1364.45	148
1369.91	162
1375.37	338
1380.82	414
1386.27	272
1391.71	148
1397.15	134
1402.58	136
1408.01	134
1413.43	140
1418.85	152
1424.26	176
1429.66	180
1435.06	186
1440.46	204
1445.85	198
1451.23	174
1456.61	156
1461.98	138
1467.35	152
1472.71	150
1478.07	136
1483.42	124
1488.77	124
1494.11	106
1499.45	116
1504.78	118
1510.11	110
1515.43	100
1520.74	108
1526.05	104
1531.36	108
1536.66	104
1541.95	104
1547.24	108
1552.52	106
1557.8	108
1563.08	112
1568.35	116
1573.61	120
1578.87	134
1584.12	158
1589.37	226
1594.61	330
1599.85	432
1605.08	416
1610.31	322
1615.53	236
1620.75	160
1625.96	114
1631.17	116
1636.37	90
1641.57	96
1646.76	84
1651.95	82
1657.13	78
1662.31	84
1667.48	74
1672.65	80
1677.81	74
1682.97	74
1688.12	80
1693.27	78
1698.41	82
1702.26	78

File: ps-ppo-6jan25-0,0000-map2_Y08_X03.txt
204.377	342
211.048	286
217.712	308
224.369	454
231.019	836
237.661	846
244.297	600
250.924	370
257.546	250
264.16	196
270.766	166
277.365	176
283.958	212
290.543	326
297.121	406
303.693	304
310.256	254
316.813	218
323.362	200
329.905	234
336.441	240
342.969	198
349.491	198
356.006	198
362.513	184
369.014	178
375.508	174
381.994	150
388.473	124
394.947	120
401.412	106
407.871	136
414.323	200
420.768	164
427.206	118
433.637	96
440.062	78
446.479	76
452.89	76
459.293	80
465.691	98
472.081	146
478.463	208
484.84	256
491.21	156
497.573	94
503.929	102
510.279	150
516.621	152
522.957	146
529.287	206
535.609	372
541.925	382
548.234	200
554.536	190
560.832	350
567.12	1332
573.403	1706
579.679	466
585.948	288
592.211	246
598.466	192
604.715	108
610.958	88
617.194	94
623.424	102
629.647	122
635.864	132
642.074	118
648.276	100
654.473	80
660.664	62
666.847	68
673.025	56
679.195	56
685.36	58
691.517	52
697.669	56
703.814	64
709.953	78
716.085	98
722.21	78
728.33	74
734.443	74
740.549	88
746.65	134
752.743	104
758.831	92
764.912	62
770.986	74
777.055	80
783.117	78
789.173	70
795.222	58
801.265	66
807.302	66
813.333	72
819.357	84
825.376	126
831.387	454
837.392	230
843.392	98
849.386	86
855.372	80
861.353	78
867.328	68
873.296	60
879.258	56
885.214	58
891.164	56
897.108	64
903.046	60
908.977	54
914.903	54
920.822	56
926.735	58
932.643	62
938.543	70
944.439	82
950.328	146
956.21	278
962.088	322
967.958	202
973.824	124
979.682	78
985.534	70
991.382	70
997.222	64
1003.06	60
1008.89	54
1014.71	66
1020.53	74
1026.34	84
1032.14	92
1037.94	92
1043.73	82
1049.52	66
1055.3	60
1061.08	58
1066.85	64
1072.61	60
1078.37	60
1084.12	68
1089.87	66
1095.61	64
1101.34	72
1107.07	126
1112.8	326
1118.51	148
1124.22	100
1129.93	88
1135.63	82
1141.32	92
1147.01	76
1152.69	70
1158.37	78
1164.04	92
1169.71	82
1175.37	90
1181.02	136
1186.67	222
1192.31	166
1197.95	146
1203.58	164
1209.2	114
1214.82	90
1220.44	88
1226.05	102
1231.65	122
1237.25	90
1242.84	80
1248.42	86
1254	82
1259.58	86
1265.15	92
1270.71	96
1276.27	100
1281.82	116
1287.37	152
1292.91	184
1298.45	308
1303.98	710
1309.5	464
1315.02	242
1320.53	176
1326.04	164
1331.54	162
1337.04	140
1342.53	148
1348.02	156
1353.5	148
1358.98	142
1364.45	154
1369.91	166
1375.37	314
1380.82	386
1386.27	244
1391.71	154
1397.15	132
1402.58	126
1408.01	130
1413.43	136
1418.85	142
1424.26	164
1429.66	182
1435.06	184
1440.46	198
1445.85	190
1451.23	178
1456.61	154
1461.98	144
1467.35	138
1472.71	134
1478.07	138
1483.42	134
1488.77	120
1494.11	120
1499.45	114
1504.78	100
1510.11	110
1515.43	112
1520.74	110
1526.05	110
1531.36	100
1536.66	100
1541.95	98
1547.24	100
1552.52	106
1557.8	104
1563.08	104
1568.35	118
1573.61	118
1578.87	142
1584.12	170
1589.37	228
1594.61	318
1599.85	412
1605.08	434
1610.31	326
1615.53	226
1620.75	152
1625.96	120
1631.17	102
1636.37	98
1641.57	88
1646.76	92
1651.95	78
1657.13	76
1662.31	86
1667.48	76
1672.65	78
1677.81	74
1682.97	68
1688.12	80
1693.27	78
1698.41	78
1702.26	80