Folder: NRC_SU25_Spectral_Classification/Jesse_Dataset_v2/Pure Raman/Polypropylene oxide/785nm (part 2)

File: ps-ppo-6jan25-0,0000-map2_Y01_X06.txt
204.377	376
211.048	356
217.712	342
224.369	462
231.019	882
237.661	924
244.297	634
250.924	402
257.546	272
264.16	198
270.766	180
277.365	174
283.958	234
290.543	384
297.121	430
303.693	324
310.256	258
316.813	236
323.362	226
329.905	244
336.441	250
342.969	222
349.491	206
356.006	226
362.513	186
369.014	200
375.508	188
381.994	140
388.473	122
394.947	128
401.412	124
407.871	156
414.323	208
420.768	150
427.206	122
433.637	98
440.062	86
446.479	70
452.89	72
459.293	78
465.691	110
472.081	154
478.463	228
484.84	306
491.21	166
497.573	120
503.929	96
510.279	156
516.621	176
522.957	158
529.287	226
535.609	404
541.925	414
548.234	230
554.536	198
560.832	392
567.12	1436
573.403	1982
579.679	502
585.948	332
592.211	266
598.466	208
604.715	122
610.958	92
617.194	84
623.424	112
629.647	128
635.864	150
642.074	118
648.276	110
654.473	80
660.664	74
666.847	68
673.025	66
679.195	66
685.36	62
691.517	58
697.669	64
703.814	70
709.953	76
716.085	96
722.21	80
728.33	76
734.443	84
740.549	94
746.65	144
752.743	118
758.831	92
764.912	72
770.986	70
777.055	82
783.117	74
789.173	74
795.222	70
801.265	62
807.302	74
813.333	76
819.357	88
825.376	134
831.387	498
837.392	246
843.392	110
849.386	96
855.372	84
861.353	86
867.328	72
873.296	66
879.258	62
885.214	56
891.164	52
897.108	64
903.046	60
908.977	56
914.903	58
920.822	58
926.735	58
932.643	66
938.543	64
944.439	90
950.328	150
956.21	302
962.088	374
967.958	220
973.824	138
979.682	78
985.534	76
991.382	80
997.222	62
1003.06	58
1008.89	58
1014.71	66
1020.53	72
1026.34	70
1032.14	96
1037.94	98
1043.73	84
1049.52	72
1055.3	62
1061.08	64
1066.85	66
1072.61	60
1078.37	62
1084.12	68
1089.87	66
1095.61	68
1101.34	76
1107.07	140
1112.8	342
1118.51	156
1124.22	94
1129.93	90
1135.63	84
1141.32	80
1147.01	76
1152.69	82
1158.37	80
1164.04	96
1169.71	84
1175.37	104
1181.02	146
1186.67	246
1192.31	172
1197.95	150
1203.58	180
1209.2	130
1214.82	92
1220.44	94
1226.05	106
1231.65	128
1237.25	94
1242.84	80
1248.42	88
1254	88
1259.58	94
1265.15	96
1270.71	104
1276.27	114
1281.82	124
1287.37	152
1292.91	186
1298.45	354
1303.98	774
1309.5	516
1315.02	276
1320.53	182
1326.04	178
1331.54	170
1337.04	152
1342.53	152
1348.02	172
1353.5	160
1358.98	146
1364.45	146
1369.91	174
1375.37	346
1380.82	430
1386.27	280
1391.71	160
1397.15	142
1402.58	134
1408.01	128
1413.43	156
1418.85	156
1424.26	186
1429.66	188
1435.06	186
1440.46	220
1445.85	194
1451.23	172
1456.61	156
1461.98	164
1467.35	142
1472.71	144
1478.07	148
1483.42	134
1488.77	126
1494.11	114
1499.45	116
1504.78	108
1510.11	112
1515.43	120
1520.74	106
1526.05	112
1531.36	114
1536.66	112
1541.95	108
1547.24	108
1552.52	104
1557.8	108
1563.08	110
1568.35	116
1573.61	122
1578.87	142
1584.12	194
1589.37	234
1594.61	328
1599.85	444
1605.08	444
1610.31	314
1615.53	260
1620.75	176
1625.96	134
1631.17	108
1636.37	96
1641.57	88
1646.76	86
1651.95	84
1657.13	82
1662.31	76
1667.48	84
1672.65	84
1677.81	86
1682.97	80
1688.12	78
1693.27	84
1698.41	80
1702.26	80

File: ps-ppo-6jan25-0,0000-map2_Y01_X07.txt
204.377	398
211.048	326
217.712	326
224.369	470
231.019	902
237.661	932
244.297	620
250.924	414
257.546	262
264.16	204
270.766	186
277.365	184
283.958	250
290.543	380
297.121	440
303.693	332
310.256	264
316.813	240
323.362	232
329.905	254
336.441	260
342.969	218
349.491	198
356.006	212
362.513	200
369.014	186
375.508	176
381.994	160
388.473	144
394.947	124
401.412	132
407.871	162
414.323	218
420.768	164
427.206	126
433.637	98
440.062	90
446.479	82
452.89	86
459.293	88
465.691	96
472.081	146
478.463	230
484.84	304
491.21	166
497.573	108
503.929	106
510.279	148
516.621	182
522.957	152
529.287	230
535.609	424
541.925	408
548.234	234
554.536	222
560.832	388
567.12	1402
573.403	2002
579.679	494
585.948	342
592.211	268
598.466	208
604.715	114
610.958	90
617.194	96
623.424	98
629.647	140
635.864	148
642.074	124
648.276	110
654.473	92
660.664	74
666.847	68
673.025	68
679.195	56
685.36	62
691.517	66
697.669	56
703.814	66
709.953	84
716.085	104
722.21	76
728.33	76
734.443	78
740.549	80
746.65	156
752.743	116
758.831	94
764.912	66
770.986	72
777.055	80
783.117	76
789.173	70
795.222	68
801.265	74
807.302	74
813.333	70
819.357	78
825.376	126
831.387	488
837.392	258
843.392	100
849.386	92
855.372	90
861.353	74
867.328	74
873.296	62
879.258	66
885.214	56
891.164	62
897.108	58
903.046	62
908.977	62
914.903	60
920.822	56
926.735	62
932.643	68
938.543	76
944.439	88
950.328	144
956.21	320
962.088	364
967.958	234
973.824	132
979.682	86
985.534	64
991.382	78
997.222	68
1003.06	62
1008.89	64
1014.71	66
1020.53	86
1026.34	88
1032.14	106
1037.94	98
1043.73	80
1049.52	66
1055.3	62
1061.08	62
1066.85	58
1072.61	68
1078.37	62
1084.12	62
1089.87	66
1095.61	76
1101.34	78
1107.07	136
1112.8	342
1118.51	156
1124.22	108
1129.93	78
1135.63	88
1141.32	90
1147.01	76
1152.69	78
1158.37	86
1164.04	90
1169.71	86
1175.37	100
1181.02	146
1186.67	230
1192.31	166
1197.95	166
1203.58	168
1209.2	136
1214.82	90
1220.44	88
1226.05	114
1231.65	128
1237.25	102
1242.84	80
1248.42	80
1254	92
1259.58	94
1265.15	102
1270.71	94
1276.27	112
1281.82	128
1287.37	150
1292.91	190
1298.45	346
1303.98	768
1309.5	562
1315.02	254
1320.53	198
1326.04	188
1331.54	178
1337.04	152
1342.53	152
1348.02	152
1353.5	174
1358.98	160
1364.45	148
1369.91	180
1375.37	332
1380.82	426
1386.27	284
1391.71	162
1397.15	144
1402.58	138
1408.01	138
1413.43	134
1418.85	164
1424.26	196
1429.66	196
1435.06	192
1440.46	200
1445.85	194
1451.23	160
1456.61	166
1461.98	160
1467.35	142
1472.71	142
1478.07	142
1483.42	134
1488.77	116
1494.11	124
1499.45	114
1504.78	122
1510.11	112
1515.43	108
1520.74	112
1526.05	108
1531.36	108
1536.66	106
1541.95	112
1547.24	116
1552.52	106
1557.8	120
1563.08	114
1568.35	114
1573.61	130
1578.87	144
1584.12	188
1589.37	248
1594.61	330
1599.85	438
1605.08	462
1610.31	338
1615.53	240
1620.75	176
1625.96	118
1631.17	102
1636.37	94
1641.57	88
1646.76	86
1651.95	84
1657.13	90
1662.31	82
1667.48	86
1672.65	84
1677.81	78
1682.97	84
1688.12	74
1693.27	84
1698.41	86
1702.26	72

File: ps-ppo-6jan25-0,0000-map2_Y02_X00.txt
204.377	392
211.048	360
217.712	346
224.369	488
231.019	930
237.661	956
244.297	672
250.924	418
257.546	278
264.16	216
270.766	190
277.365	182
283.958	240
290.543	386
297.121	442
303.693	346
310.256	286
316.813	246
323.362	234
329.905	274
336.441	262
342.969	218
349.491	222
356.006	226
362.513	202
369.014	208
375.508	192
381.994	166
388.473	146
394.947	142
401.412	136
407.871	160
414.323	226
420.768	168
427.206	130
433.637	110
440.062	86
446.479	86
452.89	90
459.293	82
465.691	112
472.081	156
478.463	228
484.84	310
491.21	184
497.573	110
503.929	104
510.279	174
516.621	186
522.957	160
529.287	234
535.609	428
541.925	418
548.234	232
554.536	228
560.832	410
567.12	1456
573.403	2024
579.679	516
585.948	350
592.211	286
598.466	222
604.715	120
610.958	92
617.194	102
623.424	116
629.647	148
635.864	166
642.074	144
648.276	98
654.473	90
660.664	76
666.847	64
673.025	68
679.195	64
685.36	66
691.517	66
697.669	64
703.814	66
709.953	86
716.085	108
722.21	80
728.33	74
734.443	80
740.549	96
746.65	154
752.743	122
758.831	106
764.912	74
770.986	72
777.055	88
783.117	86
789.173	76
795.222	66
801.265	70
807.302	78
813.333	72
819.357	84
825.376	138
831.387	484
837.392	268
843.392	110
849.386	94
855.372	92
861.353	80
867.328	72
873.296	72
879.258	66
885.214	66
891.164	56
897.108	60
903.046	62
908.977	66
914.903	62
920.822	54
926.735	66
932.643	66
938.543	76
944.439	92
950.328	152
956.21	312
962.088	364
967.958	240
973.824	144
979.682	88
985.534	76
991.382	80
997.222	62
1003.06	70
1008.89	60
1014.71	70
1020.53	90
1026.34	88
1032.14	108
1037.94	96
1043.73	84
1049.52	74
1055.3	62
1061.08	64
1066.85	66
1072.61	62
1078.37	66
1084.12	64
1089.87	66
1095.61	74
1101.34	82
1107.07	150
1112.8	356
1118.51	168
1124.22	104
1129.93	88
1135.63	80
1141.32	84
1147.01	80
1152.69	84
1158.37	80
1164.04	92
1169.71	90
1175.37	102
1181.02	156
1186.67	242
1192.31	170
1197.95	164
1203.58	176
1209.2	136
1214.82	102
1220.44	86
1226.05	112
1231.65	130
1237.25	104
1242.84	90
1248.42	88
1254	92
1259.58	94
1265.15	90
1270.71	92
1276.27	108
1281.82	142
1287.37	150
1292.91	188
1298.45	352
1303.98	774
1309.5	548
1315.02	274
1320.53	198
1326.04	198
1331.54	168
1337.04	148
1342.53	170
1348.02	160
1353.5	160
1358.98	152
1364.45	138
1369.91	180
1375.37	346
1380.82	444
1386.27	280
1391.71	164
1397.15	146
1402.58	126
1408.01	142
1413.43	144
1418.85	170
1424.26	184
1429.66	186
1435.06	222
1440.46	220
1445.85	190
1451.23	184
1456.61	160
1461.98	160
1467.35	150
1472.71	148
1478.07	144
1483.42	138
1488.77	130
1494.11	126
1499.45	128
1504.78	112
1510.11	112
1515.43	106
1520.74	110
1526.05	106
1531.36	110
1536.66	106
1541.95	102
1547.24	104
1552.52	114
1557.8	114
1563.08	116
1568.35	122
1573.61	132
1578.87	136
1584.12	172
1589.37	240
1594.61	346
1599.85	440
1605.08	470
1610.31	370
1615.53	254
1620.75	182
1625.96	134
1631.17	98
1636.37	96
1641.57	98
1646.76	86
1651.95	90
1657.13	80
1662.31	84
1667.48	82
1672.65	76
1677.81	82
1682.97	80
1688.12	86
1693.27	84
1698.41	68
1702.26	80

File: ps-ppo-6jan25-0,0000-map2_Y02_X01.txt
204.377	398
211.048	360
217.712	358
224.369	478
231.019	918
237.661	950
244.297	660
250.924	428
257.546	286
264.16	222
270.766	196
277.365	178
283.958	240
290.543	394
297.121	450
303.693	344
310.256	280
316.813	246
323.362	242
329.905	272
336.441	262
342.969	238
349.491	236
356.006	216
362.513	194
369.014	210
375.508	202
381.994	150
388.473	144
394.947	122
401.412	134
407.871	146
414.323	230
420.768	160
427.206	126
433.637	104
440.062	96
446.479	86
452.89	82
459.293	88
465.691	112
472.081	160
478.463	236
484.84	286
491.21	190
497.573	118
503.929	102
510.279	162
516.621	162
522.957	156
529.287	238
535.609	404
541.925	428
548.234	220
554.536	228
560.832	404
567.12	1484
573.403	2148
579.679	540
585.948	356
592.211	272
598.466	218
604.715	130
610.958	96
617.194	96
623.424	114
629.647	140
635.864	158
642.074	140
648.276	104
654.473	92
660.664	82
666.847	72
673.025	62
679.195	64
685.36	70
691.517	60
697.669	62
703.814	64
709.953	82
716.085	98
722.21	84
728.33	82
734.443	80
740.549	90
746.65	138
752.743	118
758.831	90
764.912	76
770.986	74
777.055	84
783.117	84
789.173	64
795.222	72
801.265	62
807.302	74
813.333	74
819.357	88
825.376	138
831.387	512
837.392	264
843.392	112
849.386	108
855.372	86
861.353	92
867.328	72
873.296	58
879.258	62
885.214	66
891.164	62
897.108	56
903.046	66
908.977	56
914.903	56
920.822	56
926.735	60
932.643	64
938.543	82
944.439	100
950.328	154
956.21	318
962.088	384
967.958	236
973.824	146
979.682	90
985.534	80
991.382	76
997.222	62
1003.06	62
1008.89	66
1014.71	66
1020.53	84
1026.34	90
1032.14	102
1037.94	102
1043.73	90
1049.52	72
1055.3	70
1061.08	64
1066.85	64
1072.61	62
1078.37	68
1084.12	64
1089.87	64
1095.61	72
1101.34	84
1107.07	144
1112.8	370
1118.51	162
1124.22	106
1129.93	90
1135.63	86
1141.32	86
1147.01	72
1152.69	76
1158.37	82
1164.04	92
1169.71	88
1175.37	102
1181.02	146
1186.67	252
1192.31	166
1197.95	170
1203.58	188
1209.2	120
1214.82	92
1220.44	86
1226.05	110
1231.65	128
1237.25	94
1242.84	90
1248.42	92
1254	80
1259.58	96
1265.15	100
1270.71	100
1276.27	104
1281.82	128
1287.37	146
1292.91	184
1298.45	360
1303.98	816
1309.5	548
1315.02	266
1320.53	210
1326.04	190
1331.54	186
1337.04	150
1342.53	142
1348.02	162
1353.5	168
1358.98	152
1364.45	156
1369.91	206
1375.37	340
1380.82	446
1386.27	282
1391.71	162
1397.15	134
1402.58	144
1408.01	140
1413.43	140
1418.85	168
1424.26	188
1429.66	200
1435.06	202
1440.46	222
1445.85	198
1451.23	182
1456.61	168
1461.98	172
1467.35	162
1472.71	162
1478.07	160
1483.42	146
1488.77	122
1494.11	118
1499.45	116
1504.78	114
1510.11	112
1515.43	110
1520.74	108
1526.05	112
1531.36	100
1536.66	100
1541.95	110
1547.24	98
1552.52	116
1557.8	110
1563.08	108
1568.35	120
1573.61	130
1578.87	142
1584.12	190
1589.37	260
1594.61	354
1599.85	456
1605.08	476
1610.31	376
1615.53	246
1620.75	178
1625.96	136
1631.17	112
1636.37	90
1641.57	88
1646.76	90
1651.95	86
1657.13	80
1662.31	78
1667.48	86
1672.65	80
1677.81	82
1682.97	80
1688.12	80
1693.27	76
1698.41	76
1702.26	84

File: ps-ppo-6jan25-0,0000-map2_Y02_X03.txt
204.377	390
211.048	344
217.712	358
224.369	500
231.019	914
237.661	930
244.297	656
250.924	412
257.546	288
264.16	214
270.766	184
277.365	182
283.958	226
290.543	376
297.121	440
303.693	338
310.256	260
316.813	242
323.362	238
329.905	258
336.441	240
342.969	220
349.491	202
356.006	220
362.513	190
369.014	202
375.508	198
381.994	146
388.473	138
394.947	128
401.412	126
407.871	150
414.323	218
420.768	158
427.206	116
433.637	100
440.062	86
446.479	86
452.89	74
459.293	90
465.691	90
472.081	150
478.463	226
484.84	294
491.21	166
497.573	110
503.929	106
510.279	166
516.621	176
522.957	154
529.287	238
535.609	406
541.925	420
548.234	238
554.536	212
560.832	384
567.12	1470
573.403	2034
579.679	516
585.948	332
592.211	280
598.466	192
604.715	120
610.958	92
617.194	100
623.424	114
629.647	124
635.864	154
642.074	136
648.276	98
654.473	84
660.664	74
666.847	64
673.025	58
679.195	60
685.36	60
691.517	60
697.669	54
703.814	70
709.953	78
716.085	106
722.21	80
728.33	76
734.443	78
740.549	100
746.65	140
752.743	114
758.831	88
764.912	76
770.986	70
777.055	78
783.117	78
789.173	76
795.222	74
801.265	70
807.302	80
813.333	68
819.357	88
825.376	138
831.387	500
837.392	258
843.392	98
849.386	108
855.372	86
861.353	86
867.328	68
873.296	66
879.258	68
885.214	56
891.164	52
897.108	56
903.046	56
908.977	58
914.903	62
920.822	64
926.735	64
932.643	60
938.543	70
944.439	90
950.328	162
956.21	306
962.088	366
967.958	232
973.824	134
979.682	82
985.534	76
991.382	70
997.222	64
1003.06	56
1008.89	62
1014.71	68
1020.53	70
1026.34	90
1032.14	96
1037.94	92
1043.73	84
1049.52	72
1055.3	68
1061.08	66
1066.85	68
1072.61	60
1078.37	64
1084.12	64
1089.87	68
1095.61	66
1101.34	80
1107.07	156
1112.8	360
1118.51	154
1124.22	108
1129.93	88
1135.63	82
1141.32	90
1147.01	76
1152.69	70
1158.37	90
1164.04	86
1169.71	88
1175.37	102
1181.02	140
1186.67	242
1192.31	184
1197.95	160
1203.58	188
1209.2	126
1214.82	92
1220.44	86
1226.05	108
1231.65	114
1237.25	104
1242.84	82
1248.42	86
1254	80
1259.58	92
1265.15	90
1270.71	96
1276.27	110
1281.82	128
1287.37	162
1292.91	204
1298.45	346
1303.98	782
1309.5	508
1315.02	276
1320.53	200
1326.04	180
1331.54	188
1337.04	154
1342.53	168
1348.02	172
1353.5	170
1358.98	170
1364.45	152
1369.91	178
1375.37	348
1380.82	436
1386.27	296
1391.71	172
1397.15	134
1402.58	134
1408.01	138
1413.43	146
1418.85	150
1424.26	182
1429.66	188
1435.06	206
1440.46	212
1445.85	202
1451.23	162
1456.61	166
1461.98	158
1467.35	140
1472.71	152
1478.07	148
1483.42	132
1488.77	138
1494.11	128
1499.45	114
1504.78	106
1510.11	120
1515.43	118
1520.74	110
1526.05	108
1531.36	122
1536.66	114
1541.95	108
1547.24	108
1552.52	118
1557.8	114
1563.08	114
1568.35	112
1573.61	126
1578.87	144
1584.12	172
1589.37	246
1594.61	366
1599.85	454
1605.08	464
1610.31	372
1615.53	252
1620.75	190
1625.96	128
1631.17	116
1636.37	108
1641.57	80
1646.76	82
1651.95	86
1657.13	84
1662.31	84
1667.48	76
1672.65	82
1677.81	74
1682.97	84
1688.12	78
1693.27	78
1698.41	86
1702.26	82

File: ps-ppo-6jan25-0,0000-map2_Y02_X06.txt
204.377	374
211.048	336
217.712	308
224.369	456
231.019	840
237.661	840
244.297	602
250.924	390
257.546	248
264.16	194
270.766	174
277.365	178
283.958	220
290.543	340
297.121	398
303.693	306
310.256	250
316.813	216
323.362	216
329.905	234
336.441	250
342.969	208
349.491	204
356.006	210
362.513	170
369.014	194
375.508	188
381.994	148
388.473	138
394.947	124
401.412	126
407.871	152
414.323	200
420.768	150
427.206	116
433.637	86
440.062	94
446.479	80
452.89	74
459.293	84
465.691	106
472.081	140
478.463	210
484.84	286
491.21	182
497.573	106
503.929	92
510.279	156
516.621	172
522.957	158
529.287	212
535.609	388
541.925	400
548.234	218
554.536	208
560.832	378
567.12	1370
573.403	1880
579.679	464
585.948	314
592.211	244
598.466	194
604.715	120
610.958	94
617.194	92
623.424	90
629.647	124
635.864	148
642.074	124
648.276	98
654.473	80
660.664	70
666.847	60
673.025	62
679.195	58
685.36	72
691.517	62
697.669	62
703.814	58
709.953	84
716.085	90
722.21	80
728.33	76
734.443	78
740.549	88
746.65	130
752.743	116
758.831	86
764.912	78
770.986	70
777.055	84
783.117	76
789.173	70
795.222	66
801.265	70
807.302	76
813.333	76
819.357	80
825.376	128
831.387	430
837.392	232
843.392	98
849.386	96
855.372	86
861.353	76
867.328	70
873.296	58
879.258	64
885.214	54
891.164	54
897.108	56
903.046	56
908.977	60
914.903	52
920.822	58
926.735	60
932.643	66
938.543	68
944.439	86
950.328	148
956.21	276
962.088	356
967.958	218
973.824	132
979.682	82
985.534	72
991.382	72
997.222	72
1003.06	64
1008.89	58
1014.71	66
1020.53	90
1026.34	78
1032.14	98
1037.94	90
1043.73	86
1049.52	66
1055.3	60
1061.08	60
1066.85	62
1072.61	62
1078.37	64
1084.12	62
1089.87	66
1095.61	66
1101.34	72
1107.07	130
1112.8	346
1118.51	160
1124.22	94
1129.93	88
1135.63	82
1141.32	90
1147.01	72
1152.69	74
1158.37	84
1164.04	90
1169.71	86
1175.37	94
1181.02	136
1186.67	214
1192.31	164
1197.95	154
1203.58	158
1209.2	132
1214.82	96
1220.44	74
1226.05	110
1231.65	134
1237.25	94
1242.84	78
1248.42	86
1254	92
1259.58	84
1265.15	90
1270.71	86
1276.27	104
1281.82	128
1287.37	148
1292.91	182
1298.45	328
1303.98	728
1309.5	496
1315.02	236
1320.53	186
1326.04	184
1331.54	166
1337.04	140
1342.53	144
1348.02	166
1353.5	166
1358.98	138
1364.45	138
1369.91	178
1375.37	316
1380.82	376
1386.27	252
1391.71	148
1397.15	130
1402.58	136
1408.01	130
1413.43	132
1418.85	154
1424.26	168
1429.66	166
1435.06	192
1440.46	194
1445.85	208
1451.23	148
1456.61	144
1461.98	160
1467.35	148
1472.71	146
1478.07	146
1483.42	136
1488.77	120
1494.11	118
1499.45	104
1504.78	114
1510.11	106
1515.43	104
1520.74	110
1526.05	102
1531.36	104
1536.66	106
1541.95	102
1547.24	108
1552.52	106
1557.8	108
1563.08	116
1568.35	112
1573.61	128
1578.87	142
1584.12	156
1589.37	212
1594.61	326
1599.85	426
1605.08	452
1610.31	350
1615.53	244
1620.75	164
1625.96	120
1631.17	98
1636.37	92
1641.57	90
1646.76	86
1651.95	72
1657.13	78
1662.31	78
1667.48	76
1672.65	72
1677.81	80
1682.97	78
1688.12	74
1693.27	72
1698.41	78
1702.26	74

File: ps-ppo-6jan25-0,0000-map2_Y02_X07.txt
204.377	358
211.048	320
217.712	308
224.369	442
231.019	872
237.661	870
244.297	602
250.924	390
257.546	248
264.16	202
270.766	180
277.365	170
283.958	226
290.543	366
297.121	408
303.693	330
310.256	262
316.813	240
323.362	226
329.905	242
336.441	240
342.969	216
349.491	212
356.006	206
362.513	182
369.014	180
375.508	180
381.994	150
388.473	132
394.947	132
401.412	132
407.871	158
414.323	212
420.768	158
427.206	122
433.637	100
440.062	84
446.479	86
452.89	76
459.293	84
465.691	100
472.081	152
478.463	206
484.84	284
491.21	168
497.573	110
503.929	106
510.279	150
516.621	180
522.957	146
529.287	226
535.609	382
541.925	394
548.234	216
554.536	200
560.832	394
567.12	1378
573.403	1908
579.679	466
585.948	322
592.211	264
598.466	196
604.715	112
610.958	96
617.194	84
623.424	106
629.647	126
635.864	140
642.074	122
648.276	100
654.473	86
660.664	72
666.847	72
673.025	58
679.195	58
685.36	62
691.517	62
697.669	62
703.814	54
709.953	78
716.085	102
722.21	82
728.33	76
734.443	72
740.549	80
746.65	138
752.743	114
758.831	80
764.912	70
770.986	70
777.055	76
783.117	72
789.173	72
795.222	64
801.265	70
807.302	76
813.333	78
819.357	82
825.376	130
831.387	474
837.392	242
843.392	100
849.386	96
855.372	86
861.353	74
867.328	66
873.296	64
879.258	62
885.214	58
891.164	56
897.108	56
903.046	60
908.977	58
914.903	60
920.822	54
926.735	66
932.643	62
938.543	66
944.439	92
950.328	146
956.21	284
962.088	360
967.958	224
973.824	146
979.682	86
985.534	68
991.382	70
997.222	62
1003.06	66
1008.89	60
1014.71	62
1020.53	74
1026.34	78
1032.14	88
1037.94	102
1043.73	82
1049.52	78
1055.3	60
1061.08	58
1066.85	62
1072.61	62
1078.37	64
1084.12	64
1089.87	64
1095.61	72
1101.34	74
1107.07	134
1112.8	346
1118.51	160
1124.22	96
1129.93	86
1135.63	78
1141.32	90
1147.01	82
1152.69	74
1158.37	86
1164.04	90
1169.71	82
1175.37	96
1181.02	134
1186.67	240
1192.31	162
1197.95	152
1203.58	164
1209.2	134
1214.82	104
1220.44	84
1226.05	114
1231.65	124
1237.25	92
1242.84	76
1248.42	86
1254	92
1259.58	90
1265.15	94
1270.71	102
1276.27	100
1281.82	124
1287.37	148
1292.91	178
1298.45	326
1303.98	744
1309.5	494
1315.02	262
1320.53	186
1326.04	178
1331.54	184
1337.04	140
1342.53	154
1348.02	172
1353.5	166
1358.98	142
1364.45	152
1369.91	168
1375.37	308
1380.82	398
1386.27	274
1391.71	150
1397.15	132
1402.58	132
1408.01	132
1413.43	154
1418.85	158
1424.26	162
1429.66	186
1435.06	202
1440.46	198
1445.85	196
1451.23	166
1456.61	156
1461.98	154
1467.35	156
1472.71	132
1478.07	136
1483.42	130
1488.77	128
1494.11	120
1499.45	114
1504.78	110
1510.11	118
1515.43	116
1520.74	108
1526.05	100
1531.36	108
1536.66	104
1541.95	108
1547.24	104
1552.52	104
1557.8	104
1563.08	110
1568.35	116
1573.61	124
1578.87	134
1584.12	164
1589.37	230
1594.61	326
1599.85	446
1605.08	426
1610.31	338
1615.53	240
1620.75	164
1625.96	116
1631.17	108
1636.37	98
1641.57	88
1646.76	82
1651.95	78
1657.13	82
1662.31	78
1667.48	72
1672.65	76
1677.81	70
1682.97	78
1688.12	82
1693.27	82
1698.41	82
1702.26	68

File: ps-ppo-6jan25-0,0000-map2_Y02_X10.txt
204.377	390
211.048	340
217.712	344
224.369	482
231.019	926
237.661	930
244.297	628
250.924	386
257.546	260
264.16	196
270.766	176
277.365	196
283.958	234
290.543	360
297.121	436
303.693	342
310.256	264
316.813	220
323.362	244
329.905	252
336.441	258
342.969	232
349.491	202
356.006	210
362.513	178
369.014	196
375.508	194
381.994	148
388.473	134
394.947	122
401.412	130
407.871	160
414.323	230
420.768	164
427.206	118
433.637	98
440.062	84
446.479	80
452.89	78
459.293	86
465.691	106
472.081	156
478.463	230
484.84	304
491.21	168
497.573	124
503.929	102
510.279	156
516.621	160
522.957	162
529.287	228
535.609	400
541.925	412
548.234	226
554.536	216
560.832	398
567.12	1468
573.403	1974
579.679	514
585.948	332
592.211	272
598.466	222
604.715	126
610.958	86
617.194	94
623.424	110
629.647	134
635.864	152
642.074	132
648.276	102
654.473	92
660.664	68
666.847	80
673.025	66
679.195	66
685.36	62
691.517	62
697.669	58
703.814	64
709.953	84
716.085	94
722.21	84
728.33	78
734.443	82
740.549	88
746.65	142
752.743	116
758.831	92
764.912	68
770.986	68
777.055	82
783.117	72
789.173	74
795.222	76
801.265	70
807.302	66
813.333	78
819.357	84
825.376	132
831.387	496
837.392	256
843.392	98
849.386	104
855.372	88
861.353	82
867.328	74
873.296	74
879.258	62
885.214	62
891.164	58
897.108	58
903.046	56
908.977	56
914.903	58
920.822	58
926.735	62
932.643	62
938.543	74
944.439	102
950.328	154
956.21	312
962.088	346
967.958	222
973.824	128
979.682	84
985.534	80
991.382	74
997.222	66
1003.06	60
1008.89	58
1014.71	66
1020.53	78
1026.34	86
1032.14	104
1037.94	102
1043.73	86
1049.52	68
1055.3	62
1061.08	54
1066.85	56
1072.61	58
1078.37	62
1084.12	66
1089.87	62
1095.61	68
1101.34	78
1107.07	152
1112.8	364
1118.51	160
1124.22	100
1129.93	88
1135.63	84
1141.32	92
1147.01	78
1152.69	76
1158.37	86
1164.04	98
1169.71	80
1175.37	98
1181.02	152
1186.67	250
1192.31	164
1197.95	148
1203.58	164
1209.2	132
1214.82	98
1220.44	96
1226.05	112
1231.65	130
1237.25	96
1242.84	88
1248.42	88
1254	86
1259.58	92
1265.15	98
1270.71	100
1276.27	108
1281.82	134
1287.37	156
1292.91	190
1298.45	340
1303.98	780
1309.5	540
1315.02	260
1320.53	206
1326.04	170
1331.54	170
1337.04	150
1342.53	144
1348.02	162
1353.5	168
1358.98	148
1364.45	152
1369.91	186
1375.37	346
1380.82	426
1386.27	262
1391.71	154
1397.15	144
1402.58	134
1408.01	128
1413.43	132
1418.85	156
1424.26	176
1429.66	190
1435.06	206
1440.46	216
1445.85	188
1451.23	188
1456.61	160
1461.98	166
1467.35	154
1472.71	146
1478.07	138
1483.42	142
1488.77	134
1494.11	130
1499.45	120
1504.78	122
1510.11	120
1515.43	118
1520.74	112
1526.05	124
1531.36	112
1536.66	106
1541.95	110
1547.24	114
1552.52	116
1557.8	116
1563.08	100
1568.35	108
1573.61	122
1578.87	154
1584.12	180
1589.37	232
1594.61	344
1599.85	468
1605.08	446
1610.31	352
1615.53	250
1620.75	160
1625.96	134
1631.17	108
1636.37	106
1641.57	94
1646.76	86
1651.95	86
1657.13	86
1662.31	86
1667.48	78
1672.65	86
1677.81	78
1682.97	84
1688.12	84
1693.27	92
1698.41	82
1702.26	80