Folder: NRC_SU25_Spectral_Classification/Jesse_Dataset_v2/Pure Raman/Polypropylene oxide/785nm (part 5)

File: ps-ppo-6jan25-0,0000-map2_Y06_X00.txt
204.377	370
211.048	324
217.712	330
224.369	452
231.019	888
237.661	884
244.297	628
250.924	402
257.546	252
264.16	222
270.766	174
277.365	184
283.958	240
290.543	364
297.121	428
303.693	310
310.256	238
316.813	228
323.362	230
329.905	246
336.441	254
342.969	216
349.491	200
356.006	202
362.513	186
369.014	186
375.508	186
381.994	152
388.473	134
394.947	126
401.412	128
407.871	146
414.323	210
420.768	168
427.206	114
433.637	96
440.062	78
446.479	78
452.89	88
459.293	86
465.691	94
472.081	154
478.463	216
484.84	292
491.21	168
497.573	116
503.929	102
510.279	162
516.621	170
522.957	152
529.287	222
535.609	416
541.925	402
548.234	230
554.536	216
560.832	398
567.12	1422
573.403	1892
579.679	462
585.948	298
592.211	258
598.466	192
604.715	122
610.958	80
617.194	96
623.424	110
629.647	140
635.864	158
642.074	120
648.276	98
654.473	78
660.664	76
666.847	72
673.025	60
679.195	62
685.36	56
691.517	56
697.669	50
703.814	66
709.953	78
716.085	100
722.21	78
728.33	68
734.443	80
740.549	90
746.65	134
752.743	122
758.831	80
764.912	70
770.986	68
777.055	74
783.117	76
789.173	64
795.222	62
801.265	62
807.302	74
813.333	74
819.357	86
825.376	140
831.387	462
837.392	240
843.392	90
849.386	96
855.372	86
861.353	72
867.328	76
873.296	66
879.258	66
885.214	62
891.164	54
897.108	60
903.046	52
908.977	56
914.903	56
920.822	64
926.735	68
932.643	64
938.543	74
944.439	82
950.328	144
956.21	302
962.088	336
967.958	224
973.824	126
979.682	80
985.534	66
991.382	82
997.222	64
1003.06	64
1008.89	68
1014.71	58
1020.53	76
1026.34	84
1032.14	92
1037.94	92
1043.73	84
1049.52	74
1055.3	60
1061.08	70
1066.85	66
1072.61	58
1078.37	64
1084.12	60
1089.87	60
1095.61	68
1101.34	78
1107.07	134
1112.8	336
1118.51	158
1124.22	96
1129.93	90
1135.63	82
1141.32	90
1147.01	76
1152.69	70
1158.37	88
1164.04	94
1169.71	92
1175.37	96
1181.02	148
1186.67	234
1192.31	170
1197.95	144
1203.58	174
1209.2	126
1214.82	90
1220.44	92
1226.05	122
1231.65	122
1237.25	104
1242.84	78
1248.42	82
1254	84
1259.58	86
1265.15	94
1270.71	86
1276.27	106
1281.82	122
1287.37	142
1292.91	188
1298.45	340
1303.98	724
1309.5	482
1315.02	242
1320.53	196
1326.04	182
1331.54	160
1337.04	148
1342.53	132
1348.02	150
1353.5	160
1358.98	146
1364.45	158
1369.91	178
1375.37	312
1380.82	396
1386.27	266
1391.71	156
1397.15	138
1402.58	140
1408.01	134
1413.43	132
1418.85	162
1424.26	164
1429.66	184
1435.06	202
1440.46	212
1445.85	194
1451.23	154
1456.61	156
1461.98	150
1467.35	152
1472.71	142
1478.07	158
1483.42	118
1488.77	114
1494.11	112
1499.45	114
1504.78	110
1510.11	100
1515.43	112
1520.74	102
1526.05	108
1531.36	108
1536.66	92
1541.95	104
1547.24	114
1552.52	102
1557.8	112
1563.08	108
1568.35	112
1573.61	130
1578.87	140
1584.12	168
1589.37	224
1594.61	324
1599.85	440
1605.08	426
1610.31	346
1615.53	232
1620.75	162
1625.96	124
1631.17	108
1636.37	98
1641.57	90
1646.76	86
1651.95	82
1657.13	90
1662.31	82
1667.48	82
1672.65	74
1677.81	76
1682.97	78
1688.12	78
1693.27	82
1698.41	76
1702.26	76

File: ps-ppo-6jan25-0,0000-map2_Y06_X02.txt
204.377	392
211.048	336
217.712	342
224.369	510
231.019	922
237.661	930
244.297	636
250.924	408
257.546	274
264.16	200
270.766	188
277.365	188
283.958	238
290.543	374
297.121	430
303.693	326
310.256	270
316.813	216
323.362	232
329.905	262
336.441	264
342.969	226
349.491	198
356.006	208
362.513	198
369.014	190
375.508	192
381.994	144
388.473	132
394.947	122
401.412	134
407.871	162
414.323	224
420.768	166
427.206	118
433.637	94
440.062	84
446.479	80
452.89	70
459.293	88
465.691	108
472.081	148
478.463	210
484.84	292
491.21	178
497.573	118
503.929	98
510.279	164
516.621	170
522.957	160
529.287	234
535.609	390
541.925	406
548.234	224
554.536	218
560.832	410
567.12	1494
573.403	2012
579.679	502
585.948	324
592.211	244
598.466	210
604.715	116
610.958	106
617.194	86
623.424	118
629.647	134
635.864	154
642.074	132
648.276	108
654.473	84
660.664	72
666.847	64
673.025	60
679.195	58
685.36	68
691.517	62
697.669	62
703.814	64
709.953	76
716.085	104
722.21	82
728.33	74
734.443	76
740.549	90
746.65	142
752.743	120
758.831	104
764.912	64
770.986	74
777.055	80
783.117	68
789.173	66
795.222	58
801.265	68
807.302	72
813.333	72
819.357	94
825.376	140
831.387	506
837.392	248
843.392	96
849.386	100
855.372	88
861.353	84
867.328	74
873.296	66
879.258	62
885.214	64
891.164	60
897.108	56
903.046	60
908.977	58
914.903	60
920.822	62
926.735	56
932.643	62
938.543	72
944.439	98
950.328	154
956.21	292
962.088	372
967.958	232
973.824	138
979.682	82
985.534	72
991.382	76
997.222	68
1003.06	64
1008.89	64
1014.71	62
1020.53	80
1026.34	78
1032.14	96
1037.94	96
1043.73	80
1049.52	72
1055.3	64
1061.08	62
1066.85	58
1072.61	58
1078.37	58
1084.12	66
1089.87	68
1095.61	68
1101.34	82
1107.07	148
1112.8	344
1118.51	158
1124.22	96
1129.93	88
1135.63	74
1141.32	88
1147.01	76
1152.69	80
1158.37	86
1164.04	88
1169.71	74
1175.37	94
1181.02	150
1186.67	246
1192.31	170
1197.95	166
1203.58	178
1209.2	128
1214.82	96
1220.44	82
1226.05	110
1231.65	122
1237.25	98
1242.84	84
1248.42	88
1254	92
1259.58	88
1265.15	102
1270.71	106
1276.27	104
1281.82	124
1287.37	164
1292.91	192
1298.45	354
1303.98	776
1309.5	530
1315.02	284
1320.53	210
1326.04	184
1331.54	154
1337.04	138
1342.53	142
1348.02	172
1353.5	176
1358.98	140
1364.45	156
1369.91	180
1375.37	332
1380.82	430
1386.27	278
1391.71	148
1397.15	130
1402.58	142
1408.01	128
1413.43	144
1418.85	162
1424.26	168
1429.66	178
1435.06	194
1440.46	214
1445.85	192
1451.23	168
1456.61	164
1461.98	156
1467.35	154
1472.71	154
1478.07	150
1483.42	140
1488.77	130
1494.11	112
1499.45	110
1504.78	114
1510.11	112
1515.43	108
1520.74	110
1526.05	114
1531.36	114
1536.66	116
1541.95	114
1547.24	106
1552.52	108
1557.8	112
1563.08	104
1568.35	112
1573.61	128
1578.87	142
1584.12	186
1589.37	244
1594.61	334
1599.85	478
1605.08	452
1610.31	374
1615.53	272
1620.75	152
1625.96	126
1631.17	100
1636.37	92
1641.57	98
1646.76	88
1651.95	88
1657.13	84
1662.31	84
1667.48	78
1672.65	82
1677.81	78
1682.97	70
1688.12	82
1693.27	80
1698.41	76
1702.26	84

File: ps-ppo-6jan25-0,0000-map2_Y06_X03.txt
204.377	388
211.048	344
217.712	310
224.369	444
231.019	882
237.661	864
244.297	630
250.924	394
257.546	260
264.16	192
270.766	174
277.365	178
283.958	228
290.543	368
297.121	436
303.693	344
310.256	264
316.813	238
323.362	222
329.905	254
336.441	258
342.969	210
349.491	206
356.006	202
362.513	184
369.014	178
375.508	184
381.994	140
388.473	120
394.947	122
401.412	124
407.871	156
414.323	208
420.768	162
427.206	122
433.637	90
440.062	74
446.479	82
452.89	76
459.293	80
465.691	106
472.081	160
478.463	218
484.84	304
491.21	172
497.573	112
503.929	104
510.279	154
516.621	164
522.957	158
529.287	218
535.609	402
541.925	418
548.234	214
554.536	220
560.832	414
567.12	1390
573.403	1908
579.679	490
585.948	328
592.211	266
598.466	196
604.715	112
610.958	94
617.194	88
623.424	104
629.647	132
635.864	148
642.074	124
648.276	104
654.473	74
660.664	78
666.847	62
673.025	66
679.195	60
685.36	60
691.517	60
697.669	56
703.814	64
709.953	88
716.085	98
722.21	76
728.33	70
734.443	86
740.549	100
746.65	146
752.743	112
758.831	98
764.912	64
770.986	64
777.055	76
783.117	76
789.173	70
795.222	66
801.265	70
807.302	74
813.333	70
819.357	84
825.376	128
831.387	474
837.392	250
843.392	104
849.386	100
855.372	88
861.353	82
867.328	66
873.296	66
879.258	62
885.214	60
891.164	56
897.108	58
903.046	54
908.977	62
914.903	54
920.822	62
926.735	56
932.643	62
938.543	74
944.439	84
950.328	154
956.21	280
962.088	362
967.958	224
973.824	134
979.682	92
985.534	64
991.382	68
997.222	62
1003.06	66
1008.89	64
1014.71	66
1020.53	76
1026.34	86
1032.14	96
1037.94	98
1043.73	78
1049.52	76
1055.3	68
1061.08	72
1066.85	62
1072.61	62
1078.37	68
1084.12	68
1089.87	68
1095.61	70
1101.34	82
1107.07	140
1112.8	360
1118.51	148
1124.22	102
1129.93	92
1135.63	90
1141.32	90
1147.01	74
1152.69	78
1158.37	80
1164.04	90
1169.71	84
1175.37	104
1181.02	132
1186.67	242
1192.31	172
1197.95	160
1203.58	160
1209.2	132
1214.82	94
1220.44	92
1226.05	108
1231.65	124
1237.25	100
1242.84	88
1248.42	82
1254	86
1259.58	86
1265.15	96
1270.71	104
1276.27	98
1281.82	120
1287.37	156
1292.91	180
1298.45	334
1303.98	738
1309.5	510
1315.02	258
1320.53	188
1326.04	184
1331.54	162
1337.04	152
1342.53	144
1348.02	160
1353.5	154
1358.98	142
1364.45	154
1369.91	162
1375.37	338
1380.82	428
1386.27	264
1391.71	162
1397.15	134
1402.58	132
1408.01	140
1413.43	128
1418.85	144
1424.26	174
1429.66	186
1435.06	204
1440.46	216
1445.85	188
1451.23	164
1456.61	158
1461.98	160
1467.35	152
1472.71	140
1478.07	146
1483.42	132
1488.77	110
1494.11	114
1499.45	100
1504.78	108
1510.11	116
1515.43	122
1520.74	112
1526.05	116
1531.36	108
1536.66	108
1541.95	104
1547.24	104
1552.52	110
1557.8	106
1563.08	118
1568.35	120
1573.61	126
1578.87	134
1584.12	170
1589.37	238
1594.61	316
1599.85	448
1605.08	440
1610.31	368
1615.53	242
1620.75	174
1625.96	118
1631.17	110
1636.37	92
1641.57	84
1646.76	86
1651.95	72
1657.13	82
1662.31	78
1667.48	76
1672.65	68
1677.81	80
1682.97	76
1688.12	80
1693.27	78
1698.41	74
1702.26	76

File: ps-ppo-6jan25-0,0000-map2_Y06_X04.txt
204.377	366
211.048	298
217.712	316
224.369	442
231.019	860
237.661	830
244.297	598
250.924	370
257.546	260
264.16	188
270.766	174
277.365	184
283.958	220
290.543	376
297.121	408
303.693	296
310.256	240
316.813	220
323.362	222
329.905	222
336.441	230
342.969	214
349.491	198
356.006	200
362.513	182
369.014	186
375.508	198
381.994	142
388.473	138
394.947	130
401.412	128
407.871	148
414.323	196
420.768	160
427.206	122
433.637	88
440.062	74
446.479	70
452.89	84
459.293	74
465.691	94
472.081	132
478.463	204
484.84	268
491.21	168
497.573	106
503.929	94
510.279	164
516.621	158
522.957	150
529.287	210
535.609	374
541.925	368
548.234	206
554.536	186
560.832	368
567.12	1328
573.403	1838
579.679	486
585.948	314
592.211	244
598.466	194
604.715	104
610.958	88
617.194	82
623.424	108
629.647	124
635.864	144
642.074	124
648.276	98
654.473	84
660.664	62
666.847	60
673.025	58
679.195	54
685.36	70
691.517	54
697.669	60
703.814	60
709.953	66
716.085	96
722.21	80
728.33	72
734.443	76
740.549	86
746.65	138
752.743	108
758.831	92
764.912	68
770.986	68
777.055	70
783.117	76
789.173	72
795.222	64
801.265	64
807.302	72
813.333	76
819.357	86
825.376	130
831.387	482
837.392	236
843.392	98
849.386	90
855.372	80
861.353	74
867.328	68
873.296	54
879.258	52
885.214	58
891.164	54
897.108	52
903.046	56
908.977	60
914.903	56
920.822	52
926.735	60
932.643	60
938.543	74
944.439	88
950.328	140
956.21	286
962.088	330
967.958	214
973.824	126
979.682	88
985.534	76
991.382	68
997.222	72
1003.06	64
1008.89	64
1014.71	62
1020.53	74
1026.34	80
1032.14	88
1037.94	86
1043.73	80
1049.52	66
1055.3	64
1061.08	60
1066.85	56
1072.61	60
1078.37	60
1084.12	64
1089.87	64
1095.61	68
1101.34	78
1107.07	128
1112.8	322
1118.51	154
1124.22	102
1129.93	86
1135.63	70
1141.32	80
1147.01	76
1152.69	72
1158.37	74
1164.04	82
1169.71	84
1175.37	88
1181.02	136
1186.67	230
1192.31	154
1197.95	150
1203.58	154
1209.2	116
1214.82	90
1220.44	86
1226.05	110
1231.65	134
1237.25	92
1242.84	82
1248.42	82
1254	78
1259.58	84
1265.15	90
1270.71	94
1276.27	98
1281.82	120
1287.37	130
1292.91	180
1298.45	306
1303.98	704
1309.5	468
1315.02	254
1320.53	190
1326.04	178
1331.54	160
1337.04	156
1342.53	138
1348.02	162
1353.5	152
1358.98	140
1364.45	148
1369.91	174
1375.37	312
1380.82	390
1386.27	272
1391.71	154
1397.15	130
1402.58	118
1408.01	118
1413.43	138
1418.85	150
1424.26	180
1429.66	170
1435.06	196
1440.46	204
1445.85	180
1451.23	160
1456.61	164
1461.98	144
1467.35	144
1472.71	144
1478.07	146
1483.42	118
1488.77	116
1494.11	110
1499.45	108
1504.78	114
1510.11	106
1515.43	112
1520.74	106
1526.05	112
1531.36	106
1536.66	100
1541.95	108
1547.24	106
1552.52	106
1557.8	110
1563.08	112
1568.35	108
1573.61	120
1578.87	134
1584.12	182
1589.37	222
1594.61	306
1599.85	438
1605.08	438
1610.31	328
1615.53	236
1620.75	164
1625.96	120
1631.17	104
1636.37	90
1641.57	92
1646.76	78
1651.95	84
1657.13	84
1662.31	74
1667.48	80
1672.65	72
1677.81	74
1682.97	74
1688.12	76
1693.27	86
1698.41	70
1702.26	74

File: ps-ppo-6jan25-0,0000-map2_Y06_X06.txt
204.377	360
211.048	336
217.712	334
224.369	480
231.019	910
237.661	876
244.297	616
250.924	384
257.546	260
264.16	208
270.766	162
277.365	170
283.958	232
290.543	368
297.121	410
303.693	338
310.256	252
316.813	234
323.362	210
329.905	258
336.441	252
342.969	208
349.491	200
356.006	220
362.513	184
369.014	172
375.508	174
381.994	152
388.473	120
394.947	116
401.412	120
407.871	142
414.323	206
420.768	162
427.206	110
433.637	96
440.062	86
446.479	72
452.89	80
459.293	74
465.691	98
472.081	142
478.463	216
484.84	274
491.21	164
497.573	118
503.929	96
510.279	142
516.621	158
522.957	150
529.287	208
535.609	400
541.925	406
548.234	224
554.536	178
560.832	402
567.12	1446
573.403	1968
579.679	490
585.948	340
592.211	260
598.466	198
604.715	114
610.958	92
617.194	86
623.424	108
629.647	122
635.864	158
642.074	118
648.276	98
654.473	84
660.664	66
666.847	58
673.025	56
679.195	56
685.36	52
691.517	54
697.669	54
703.814	64
709.953	80
716.085	96
722.21	74
728.33	72
734.443	78
740.549	84
746.65	142
752.743	112
758.831	90
764.912	64
770.986	62
777.055	76
783.117	68
789.173	60
795.222	64
801.265	70
807.302	72
813.333	68
819.357	84
825.376	132
831.387	468
837.392	240
843.392	100
849.386	90
855.372	80
861.353	76
867.328	70
873.296	64
879.258	52
885.214	62
891.164	54
897.108	52
903.046	56
908.977	54
914.903	58
920.822	54
926.735	56
932.643	66
938.543	68
944.439	92
950.328	148
956.21	282
962.088	338
967.958	212
973.824	130
979.682	84
985.534	74
991.382	74
997.222	64
1003.06	54
1008.89	62
1014.71	62
1020.53	76
1026.34	84
1032.14	94
1037.94	90
1043.73	82
1049.52	70
1055.3	60
1061.08	58
1066.85	52
1072.61	54
1078.37	60
1084.12	62
1089.87	58
1095.61	70
1101.34	70
1107.07	142
1112.8	356
1118.51	154
1124.22	94
1129.93	84
1135.63	76
1141.32	80
1147.01	70
1152.69	70
1158.37	86
1164.04	92
1169.71	82
1175.37	90
1181.02	146
1186.67	232
1192.31	158
1197.95	156
1203.58	172
1209.2	114
1214.82	94
1220.44	80
1226.05	108
1231.65	126
1237.25	96
1242.84	84
1248.42	80
1254	80
1259.58	76
1265.15	90
1270.71	92
1276.27	98
1281.82	122
1287.37	154
1292.91	178
1298.45	346
1303.98	698
1309.5	524
1315.02	246
1320.53	196
1326.04	184
1331.54	170
1337.04	130
1342.53	148
1348.02	162
1353.5	162
1358.98	134
1364.45	132
1369.91	170
1375.37	328
1380.82	406
1386.27	272
1391.71	170
1397.15	134
1402.58	134
1408.01	132
1413.43	140
1418.85	138
1424.26	176
1429.66	184
1435.06	196
1440.46	208
1445.85	188
1451.23	158
1456.61	152
1461.98	152
1467.35	154
1472.71	138
1478.07	140
1483.42	130
1488.77	118
1494.11	114
1499.45	114
1504.78	108
1510.11	106
1515.43	112
1520.74	110
1526.05	104
1531.36	106
1536.66	116
1541.95	106
1547.24	108
1552.52	102
1557.8	98
1563.08	114
1568.35	118
1573.61	130
1578.87	144
1584.12	170
1589.37	236
1594.61	336
1599.85	456
1605.08	452
1610.31	352
1615.53	246
1620.75	174
1625.96	122
1631.17	100
1636.37	104
1641.57	100
1646.76	88
1651.95	72
1657.13	84
1662.31	72
1667.48	78
1672.65	72
1677.81	74
1682.97	78
1688.12	80
1693.27	80
1698.41	76
1702.26	84

File: ps-ppo-6jan25-0,0000-map2_Y06_X08.txt
204.377	364
211.048	346
217.712	344
224.369	488
231.019	924
237.661	938
244.297	650
250.924	416
257.546	280
264.16	220
270.766	190
277.365	200
283.958	242
290.543	392
297.121	448
303.693	332
310.256	278
316.813	244
323.362	238
329.905	246
336.441	252
342.969	222
349.491	214
356.006	212
362.513	188
369.014	186
375.508	192
381.994	146
388.473	134
394.947	130
401.412	130
407.871	152
414.323	218
420.768	176
427.206	114
433.637	98
440.062	86
446.479	84
452.89	78
459.293	78
465.691	100
472.081	154
478.463	230
484.84	292
491.21	184
497.573	114
503.929	100
510.279	160
516.621	176
522.957	166
529.287	244
535.609	398
541.925	406
548.234	210
554.536	214
560.832	422
567.12	1470
573.403	2004
579.679	504
585.948	334
592.211	264
598.466	220
604.715	112
610.958	96
617.194	88
623.424	106
629.647	142
635.864	162
642.074	126
648.276	100
654.473	88
660.664	76
666.847	70
673.025	66
679.195	66
685.36	68
691.517	58
697.669	52
703.814	66
709.953	74
716.085	98
722.21	72
728.33	74
734.443	78
740.549	88
746.65	138
752.743	118
758.831	92
764.912	74
770.986	62
777.055	84
783.117	84
789.173	68
795.222	60
801.265	66
807.302	74
813.333	70
819.357	84
825.376	138
831.387	502
837.392	246
843.392	96
849.386	94
855.372	82
861.353	74
867.328	66
873.296	60
879.258	60
885.214	62
891.164	56
897.108	64
903.046	58
908.977	58
914.903	60
920.822	58
926.735	56
932.643	64
938.543	72
944.439	96
950.328	148
956.21	304
962.088	382
967.958	216
973.824	132
979.682	86
985.534	74
991.382	76
997.222	62
1003.06	64
1008.89	58
1014.71	64
1020.53	80
1026.34	88
1032.14	100
1037.94	98
1043.73	90
1049.52	78
1055.3	62
1061.08	66
1066.85	62
1072.61	64
1078.37	66
1084.12	64
1089.87	68
1095.61	72
1101.34	78
1107.07	138
1112.8	372
1118.51	152
1124.22	98
1129.93	86
1135.63	82
1141.32	86
1147.01	78
1152.69	76
1158.37	78
1164.04	96
1169.71	88
1175.37	96
1181.02	146
1186.67	242
1192.31	158
1197.95	162
1203.58	170
1209.2	132
1214.82	96
1220.44	98
1226.05	108
1231.65	130
1237.25	100
1242.84	80
1248.42	84
1254	94
1259.58	90
1265.15	98
1270.71	96
1276.27	106
1281.82	132
1287.37	154
1292.91	204
1298.45	352
1303.98	804
1309.5	518
1315.02	264
1320.53	206
1326.04	182
1331.54	184
1337.04	166
1342.53	156
1348.02	172
1353.5	178
1358.98	146
1364.45	146
1369.91	176
1375.37	348
1380.82	440
1386.27	282
1391.71	158
1397.15	142
1402.58	126
1408.01	144
1413.43	136
1418.85	162
1424.26	174
1429.66	192
1435.06	200
1440.46	212
1445.85	204
1451.23	172
1456.61	156
1461.98	150
1467.35	150
1472.71	134
1478.07	138
1483.42	140
1488.77	124
1494.11	120
1499.45	116
1504.78	112
1510.11	108
1515.43	118
1520.74	114
1526.05	112
1531.36	102
1536.66	110
1541.95	112
1547.24	110
1552.52	110
1557.8	120
1563.08	110
1568.35	122
1573.61	128
1578.87	144
1584.12	178
1589.37	230
1594.61	356
1599.85	460
1605.08	450
1610.31	340
1615.53	238
1620.75	184
1625.96	126
1631.17	118
1636.37	96
1641.57	92
1646.76	78
1651.95	86
1657.13	74
1662.31	82
1667.48	84
1672.65	76
1677.81	80
1682.97	70
1688.12	70
1693.27	80
1698.41	76
1702.26	80

File: ps-ppo-6jan25-0,0000-map2_Y07_X01.txt
204.377	382
211.048	334
217.712	328
224.369	484
231.019	918
237.661	902
244.297	638
250.924	400
257.546	270
264.16	206
270.766	182
277.365	188
283.958	240
290.543	368
297.121	422
303.693	348
310.256	266
316.813	242
323.362	230
329.905	250
336.441	254
342.969	240
349.491	200
356.006	224
362.513	178
369.014	188
375.508	194
381.994	148
388.473	138
394.947	126
401.412	128
407.871	148
414.323	220
420.768	162
427.206	118
433.637	102
440.062	80
446.479	78
452.89	76
459.293	74
465.691	108
472.081	150
478.463	216
484.84	300
491.21	168
497.573	110
503.929	96
510.279	164
516.621	164
522.957	162
529.287	232
535.609	430
541.925	394
548.234	228
554.536	218
560.832	394
567.12	1458
573.403	1962
579.679	484
585.948	320
592.211	260
598.466	208
604.715	114
610.958	88
617.194	98
623.424	106
629.647	134
635.864	146
642.074	124
648.276	106
654.473	86
660.664	76
666.847	58
673.025	54
679.195	52
685.36	64
691.517	60
697.669	60
703.814	64
709.953	82
716.085	104
722.21	72
728.33	74
734.443	84
740.549	88
746.65	136
752.743	112
758.831	88
764.912	68
770.986	70
777.055	70
783.117	80
789.173	72
795.222	64
801.265	70
807.302	70
813.333	70
819.357	84
825.376	126
831.387	492
837.392	236
843.392	104
849.386	94
855.372	82
861.353	82
867.328	74
873.296	66
879.258	56
885.214	64
891.164	52
897.108	56
903.046	56
908.977	54
914.903	58
920.822	54
926.735	58
932.643	70
938.543	70
944.439	88
950.328	154
956.21	322
962.088	362
967.958	222
973.824	138
979.682	82
985.534	72
991.382	80
997.222	64
1003.06	62
1008.89	64
1014.71	62
1020.53	76
1026.34	82
1032.14	94
1037.94	88
1043.73	82
1049.52	66
1055.3	62
1061.08	66
1066.85	58
1072.61	66
1078.37	58
1084.12	60
1089.87	66
1095.61	70
1101.34	82
1107.07	144
1112.8	336
1118.51	156
1124.22	110
1129.93	84
1135.63	84
1141.32	90
1147.01	78
1152.69	66
1158.37	84
1164.04	82
1169.71	80
1175.37	102
1181.02	140
1186.67	242
1192.31	176
1197.95	170
1203.58	174
1209.2	114
1214.82	88
1220.44	86
1226.05	110
1231.65	130
1237.25	92
1242.84	96
1248.42	78
1254	88
1259.58	80
1265.15	96
1270.71	96
1276.27	112
1281.82	124
1287.37	140
1292.91	178
1298.45	342
1303.98	706
1309.5	526
1315.02	266
1320.53	206
1326.04	178
1331.54	160
1337.04	148
1342.53	152
1348.02	172
1353.5	160
1358.98	156
1364.45	148
1369.91	174
1375.37	336
1380.82	418
1386.27	272
1391.71	152
1397.15	132
1402.58	142
1408.01	136
1413.43	150
1418.85	156
1424.26	182
1429.66	190
1435.06	186
1440.46	210
1445.85	188
1451.23	158
1456.61	162
1461.98	150
1467.35	154
1472.71	152
1478.07	152
1483.42	126
1488.77	112
1494.11	126
1499.45	118
1504.78	120
1510.11	112
1515.43	110
1520.74	100
1526.05	112
1531.36	108
1536.66	102
1541.95	98
1547.24	104
1552.52	112
1557.8	104
1563.08	110
1568.35	116
1573.61	130
1578.87	130
1584.12	168
1589.37	226
1594.61	320
1599.85	466
1605.08	474
1610.31	346
1615.53	242
1620.75	172
1625.96	120
1631.17	112
1636.37	98
1641.57	80
1646.76	90
1651.95	86
1657.13	88
1662.31	76
1667.48	68
1672.65	80
1677.81	80
1682.97	78
1688.12	82
1693.27	72
1698.41	76
1702.26	86

File: ps-ppo-6jan25-0,0000-map2_Y07_X03.txt
204.377	356
211.048	328
217.712	308
224.369	452
231.019	864
237.661	866
244.297	586
250.924	380
257.546	254
264.16	188
270.766	180
277.365	176
283.958	214
290.543	336
297.121	412
303.693	320
310.256	260
316.813	212
323.362	218
329.905	226
336.441	246
342.969	198
349.491	190
356.006	210
362.513	184
369.014	184
375.508	174
381.994	160
388.473	136
394.947	118
401.412	116
407.871	160
414.323	206
420.768	170
427.206	116
433.637	100
440.062	82
446.479	66
452.89	84
459.293	78
465.691	96
472.081	154
478.463	208
484.84	278
491.21	164
497.573	106
503.929	104
510.279	154
516.621	156
522.957	144
529.287	220
535.609	386
541.925	390
548.234	202
554.536	208
560.832	388
567.12	1368
573.403	1864
579.679	492
585.948	306
592.211	260
598.466	208
604.715	116
610.958	88
617.194	88
623.424	102
629.647	122
635.864	134
642.074	126
648.276	94
654.473	82
660.664	66
666.847	68
673.025	56
679.195	56
685.36	64
691.517	52
697.669	58
703.814	66
709.953	76
716.085	104
722.21	68
728.33	72
734.443	74
740.549	94
746.65	132
752.743	116
758.831	90
764.912	68
770.986	70
777.055	72
783.117	76
789.173	68
795.222	72
801.265	70
807.302	60
813.333	72
819.357	78
825.376	132
831.387	458
837.392	236
843.392	96
849.386	94
855.372	84
861.353	84
867.328	76
873.296	64
879.258	62
885.214	62
891.164	54
897.108	64
903.046	50
908.977	60
914.903	52
920.822	58
926.735	58
932.643	62
938.543	64
944.439	88
950.328	140
956.21	294
962.088	348
967.958	214
973.824	134
979.682	80
985.534	74
991.382	76
997.222	60
1003.06	66
1008.89	66
1014.71	66
1020.53	76
1026.34	82
1032.14	94
1037.94	94
1043.73	72
1049.52	72
1055.3	64
1061.08	66
1066.85	62
1072.61	70
1078.37	60
1084.12	62
1089.87	62
1095.61	70
1101.34	84
1107.07	134
1112.8	342
1118.51	156
1124.22	100
1129.93	74
1135.63	88
1141.32	88
1147.01	82
1152.69	72
1158.37	84
1164.04	90
1169.71	76
1175.37	94
1181.02	140
1186.67	240
1192.31	160
1197.95	144
1203.58	168
1209.2	126
1214.82	92
1220.44	88
1226.05	118
1231.65	124
1237.25	98
1242.84	80
1248.42	84
1254	94
1259.58	88
1265.15	100
1270.71	94
1276.27	110
1281.82	122
1287.37	134
1292.91	174
1298.45	314
1303.98	690
1309.5	476
1315.02	248
1320.53	194
1326.04	168
1331.54	154
1337.04	144
1342.53	140
1348.02	162
1353.5	162
1358.98	146
1364.45	156
1369.91	178
1375.37	338
1380.82	404
1386.27	244
1391.71	164
1397.15	136
1402.58	120
1408.01	136
1413.43	140
1418.85	154
1424.26	164
1429.66	182
1435.06	194
1440.46	200
1445.85	182
1451.23	158
1456.61	158
1461.98	136
1467.35	140
1472.71	148
1478.07	146
1483.42	136
1488.77	110
1494.11	114
1499.45	114
1504.78	106
1510.11	116
1515.43	118
1520.74	112
1526.05	106
1531.36	106
1536.66	102
1541.95	114
1547.24	112
1552.52	114
1557.8	112
1563.08	112
1568.35	124
1573.61	120
1578.87	134
1584.12	172
1589.37	228
1594.61	334
1599.85	444
1605.08	428
1610.31	338
1615.53	236
1620.75	158
1625.96	126
1631.17	110
1636.37	96
1641.57	82
1646.76	84
1651.95	80
1657.13	66
1662.31	80
1667.48	84
1672.65	78
1677.81	76
1682.97	74
1688.12	72
1693.27	86
1698.41	82
1702.26	64