Folder: NRC_SU25_Spectral_Classification/Jesse_Dataset_v2/Pure Raman/Polypropylene oxide/785nm (part 7)

File: ps-ppo-6jan25-0,0000-map2_Y08_X04.txt
204.377	334
211.048	280
217.712	304
224.369	428
231.019	814
237.661	796
244.297	556
250.924	360
257.546	238
264.16	192
270.766	162
277.365	170
283.958	212
290.543	324
297.121	374
303.693	294
310.256	240
316.813	202
323.362	204
329.905	232
336.441	228
342.969	184
349.491	196
356.006	188
362.513	172
369.014	168
375.508	166
381.994	138
388.473	126
394.947	112
401.412	118
407.871	138
414.323	190
420.768	162
427.206	110
433.637	92
440.062	80
446.479	74
452.89	66
459.293	78
465.691	86
472.081	134
478.463	186
484.84	274
491.21	158
497.573	106
503.929	80
510.279	152
516.621	164
522.957	148
529.287	212
535.609	358
541.925	352
548.234	196
554.536	194
560.832	352
567.12	1278
573.403	1656
579.679	430
585.948	292
592.211	236
598.466	184
604.715	108
610.958	84
617.194	82
623.424	100
629.647	114
635.864	136
642.074	94
648.276	94
654.473	72
660.664	66
666.847	64
673.025	62
679.195	56
685.36	62
691.517	60
697.669	52
703.814	52
709.953	72
716.085	84
722.21	74
728.33	72
734.443	76
740.549	80
746.65	124
752.743	118
758.831	78
764.912	64
770.986	56
777.055	74
783.117	70
789.173	66
795.222	62
801.265	58
807.302	70
813.333	66
819.357	78
825.376	120
831.387	432
837.392	220
843.392	96
849.386	88
855.372	86
861.353	74
867.328	64
873.296	58
879.258	64
885.214	52
891.164	64
897.108	54
903.046	56
908.977	52
914.903	52
920.822	52
926.735	56
932.643	58
938.543	66
944.439	96
950.328	140
956.21	270
962.088	316
967.958	196
973.824	124
979.682	84
985.534	70
991.382	64
997.222	54
1003.06	58
1008.89	54
1014.71	68
1020.53	68
1026.34	78
1032.14	90
1037.94	90
1043.73	76
1049.52	70
1055.3	60
1061.08	58
1066.85	56
1072.61	58
1078.37	60
1084.12	62
1089.87	58
1095.61	62
1101.34	78
1107.07	130
1112.8	298
1118.51	150
1124.22	96
1129.93	88
1135.63	86
1141.32	80
1147.01	72
1152.69	74
1158.37	84
1164.04	90
1169.71	82
1175.37	86
1181.02	136
1186.67	216
1192.31	150
1197.95	152
1203.58	150
1209.2	110
1214.82	84
1220.44	80
1226.05	90
1231.65	114
1237.25	92
1242.84	90
1248.42	76
1254	84
1259.58	84
1265.15	96
1270.71	82
1276.27	98
1281.82	112
1287.37	136
1292.91	174
1298.45	304
1303.98	672
1309.5	448
1315.02	224
1320.53	156
1326.04	176
1331.54	152
1337.04	130
1342.53	140
1348.02	154
1353.5	138
1358.98	142
1364.45	134
1369.91	162
1375.37	290
1380.82	372
1386.27	232
1391.71	148
1397.15	112
1402.58	130
1408.01	122
1413.43	128
1418.85	148
1424.26	160
1429.66	170
1435.06	186
1440.46	200
1445.85	170
1451.23	160
1456.61	150
1461.98	152
1467.35	142
1472.71	132
1478.07	136
1483.42	124
1488.77	108
1494.11	106
1499.45	102
1504.78	108
1510.11	104
1515.43	108
1520.74	96
1526.05	100
1531.36	98
1536.66	104
1541.95	100
1547.24	94
1552.52	106
1557.8	96
1563.08	106
1568.35	108
1573.61	114
1578.87	124
1584.12	164
1589.37	206
1594.61	304
1599.85	392
1605.08	386
1610.31	312
1615.53	224
1620.75	156
1625.96	114
1631.17	90
1636.37	84
1641.57	78
1646.76	78
1651.95	80
1657.13	74
1662.31	80
1667.48	78
1672.65	70
1677.81	82
1682.97	78
1688.12	68
1693.27	74
1698.41	68
1702.26	80

File: ps-ppo-6jan25-0,0000-map2_Y08_X05.txt
204.377	364
211.048	326
217.712	310
224.369	446
231.019	818
237.661	834
244.297	554
250.924	370
257.546	236
264.16	198
270.766	182
277.365	166
283.958	212
290.543	344
297.121	398
303.693	304
310.256	244
316.813	222
323.362	220
329.905	230
336.441	244
342.969	210
349.491	198
356.006	214
362.513	188
369.014	178
375.508	170
381.994	134
388.473	134
394.947	116
401.412	122
407.871	156
414.323	198
420.768	176
427.206	114
433.637	94
440.062	76
446.479	76
452.89	80
459.293	86
465.691	104
472.081	136
478.463	214
484.84	264
491.21	164
497.573	116
503.929	106
510.279	144
516.621	162
522.957	148
529.287	220
535.609	382
541.925	372
548.234	200
554.536	188
560.832	384
567.12	1346
573.403	1778
579.679	432
585.948	288
592.211	246
598.466	188
604.715	118
610.958	94
617.194	96
623.424	96
629.647	124
635.864	146
642.074	124
648.276	94
654.473	82
660.664	82
666.847	64
673.025	56
679.195	60
685.36	58
691.517	56
697.669	52
703.814	60
709.953	78
716.085	90
722.21	74
728.33	74
734.443	78
740.549	86
746.65	126
752.743	114
758.831	80
764.912	64
770.986	68
777.055	64
783.117	70
789.173	66
795.222	66
801.265	70
807.302	64
813.333	78
819.357	78
825.376	128
831.387	450
837.392	208
843.392	96
849.386	94
855.372	80
861.353	74
867.328	72
873.296	56
879.258	64
885.214	60
891.164	52
897.108	58
903.046	48
908.977	62
914.903	52
920.822	54
926.735	56
932.643	64
938.543	64
944.439	84
950.328	142
956.21	268
962.088	320
967.958	206
973.824	124
979.682	76
985.534	72
991.382	70
997.222	62
1003.06	62
1008.89	58
1014.71	64
1020.53	74
1026.34	76
1032.14	90
1037.94	96
1043.73	84
1049.52	74
1055.3	60
1061.08	62
1066.85	66
1072.61	64
1078.37	58
1084.12	70
1089.87	66
1095.61	62
1101.34	80
1107.07	126
1112.8	330
1118.51	144
1124.22	94
1129.93	88
1135.63	86
1141.32	82
1147.01	70
1152.69	78
1158.37	82
1164.04	90
1169.71	88
1175.37	82
1181.02	122
1186.67	224
1192.31	152
1197.95	146
1203.58	166
1209.2	124
1214.82	92
1220.44	84
1226.05	104
1231.65	124
1237.25	82
1242.84	86
1248.42	86
1254	84
1259.58	82
1265.15	92
1270.71	100
1276.27	92
1281.82	122
1287.37	136
1292.91	172
1298.45	314
1303.98	654
1309.5	454
1315.02	240
1320.53	182
1326.04	166
1331.54	152
1337.04	144
1342.53	136
1348.02	148
1353.5	158
1358.98	146
1364.45	148
1369.91	166
1375.37	322
1380.82	380
1386.27	250
1391.71	160
1397.15	122
1402.58	134
1408.01	128
1413.43	136
1418.85	150
1424.26	154
1429.66	170
1435.06	204
1440.46	200
1445.85	178
1451.23	158
1456.61	160
1461.98	138
1467.35	128
1472.71	134
1478.07	132
1483.42	124
1488.77	124
1494.11	108
1499.45	116
1504.78	104
1510.11	98
1515.43	112
1520.74	100
1526.05	104
1531.36	104
1536.66	88
1541.95	98
1547.24	102
1552.52	104
1557.8	98
1563.08	108
1568.35	102
1573.61	124
1578.87	126
1584.12	168
1589.37	214
1594.61	298
1599.85	410
1605.08	424
1610.31	320
1615.53	234
1620.75	162
1625.96	116
1631.17	100
1636.37	94
1641.57	84
1646.76	78
1651.95	76
1657.13	76
1662.31	84
1667.48	78
1672.65	72
1677.81	76
1682.97	74
1688.12	76
1693.27	74
1698.41	78
1702.26	64

File: ps-ppo-6jan25-0,0000-map2_Y08_X06.txt
204.377	358
211.048	318
217.712	322
224.369	454
231.019	830
237.661	880
244.297	590
250.924	398
257.546	240
264.16	198
270.766	176
277.365	176
283.958	230
290.543	340
297.121	414
303.693	306
310.256	246
316.813	232
323.362	218
329.905	252
336.441	236
342.969	208
349.491	212
356.006	206
362.513	188
369.014	190
375.508	170
381.994	144
388.473	130
394.947	118
401.412	120
407.871	156
414.323	210
420.768	152
427.206	124
433.637	94
440.062	74
446.479	84
452.89	72
459.293	94
465.691	98
472.081	144
478.463	210
484.84	276
491.21	160
497.573	114
503.929	92
510.279	152
516.621	158
522.957	150
529.287	224
535.609	386
541.925	394
548.234	208
554.536	184
560.832	396
567.12	1380
573.403	1874
579.679	438
585.948	292
592.211	242
598.466	206
604.715	116
610.958	96
617.194	92
623.424	102
629.647	132
635.864	152
642.074	106
648.276	86
654.473	80
660.664	72
666.847	68
673.025	62
679.195	60
685.36	68
691.517	64
697.669	60
703.814	58
709.953	76
716.085	94
722.21	80
728.33	70
734.443	74
740.549	92
746.65	130
752.743	122
758.831	96
764.912	68
770.986	64
777.055	76
783.117	82
789.173	76
795.222	64
801.265	66
807.302	72
813.333	70
819.357	82
825.376	130
831.387	466
837.392	226
843.392	104
849.386	86
855.372	84
861.353	84
867.328	68
873.296	72
879.258	58
885.214	62
891.164	56
897.108	54
903.046	58
908.977	58
914.903	58
920.822	56
926.735	58
932.643	64
938.543	78
944.439	90
950.328	132
956.21	280
962.088	348
967.958	226
973.824	134
979.682	80
985.534	70
991.382	76
997.222	56
1003.06	62
1008.89	62
1014.71	66
1020.53	82
1026.34	86
1032.14	94
1037.94	82
1043.73	84
1049.52	72
1055.3	68
1061.08	64
1066.85	58
1072.61	64
1078.37	68
1084.12	64
1089.87	60
1095.61	72
1101.34	78
1107.07	130
1112.8	312
1118.51	134
1124.22	102
1129.93	84
1135.63	80
1141.32	86
1147.01	72
1152.69	74
1158.37	82
1164.04	84
1169.71	90
1175.37	98
1181.02	138
1186.67	228
1192.31	156
1197.95	152
1203.58	176
1209.2	122
1214.82	90
1220.44	80
1226.05	110
1231.65	122
1237.25	92
1242.84	90
1248.42	82
1254	84
1259.58	90
1265.15	90
1270.71	88
1276.27	102
1281.82	130
1287.37	146
1292.91	162
1298.45	334
1303.98	722
1309.5	472
1315.02	248
1320.53	174
1326.04	178
1331.54	164
1337.04	138
1342.53	136
1348.02	160
1353.5	156
1358.98	136
1364.45	148
1369.91	170
1375.37	318
1380.82	386
1386.27	264
1391.71	148
1397.15	128
1402.58	130
1408.01	138
1413.43	142
1418.85	150
1424.26	172
1429.66	178
1435.06	186
1440.46	190
1445.85	172
1451.23	162
1456.61	158
1461.98	132
1467.35	144
1472.71	142
1478.07	132
1483.42	126
1488.77	120
1494.11	112
1499.45	120
1504.78	114
1510.11	114
1515.43	110
1520.74	108
1526.05	98
1531.36	100
1536.66	100
1541.95	100
1547.24	108
1552.52	102
1557.8	104
1563.08	108
1568.35	104
1573.61	110
1578.87	130
1584.12	164
1589.37	230
1594.61	308
1599.85	440
1605.08	432
1610.31	324
1615.53	244
1620.75	176
1625.96	120
1631.17	98
1636.37	92
1641.57	90
1646.76	84
1651.95	84
1657.13	86
1662.31	74
1667.48	78
1672.65	80
1677.81	78
1682.97	80
1688.12	82
1693.27	74
1698.41	82
1702.26	76

File: ps-ppo-6jan25-0,0000-map2_Y08_X07.txt
204.377	374
211.048	316
217.712	312
224.369	446
231.019	864
237.661	874
244.297	570
250.924	384
257.546	268
264.16	210
270.766	172
277.365	166
283.958	222
290.543	334
297.121	418
303.693	310
310.256	250
316.813	220
323.362	206
329.905	240
336.441	234
342.969	214
349.491	184
356.006	204
362.513	180
369.014	180
375.508	178
381.994	152
388.473	136
394.947	120
401.412	116
407.871	144
414.323	202
420.768	160
427.206	110
433.637	98
440.062	86
446.479	72
452.89	78
459.293	86
465.691	96
472.081	136
478.463	214
484.84	272
491.21	166
497.573	96
503.929	90
510.279	152
516.621	156
522.957	144
529.287	218
535.609	392
541.925	394
548.234	204
554.536	198
560.832	370
567.12	1332
573.403	1798
579.679	468
585.948	304
592.211	242
598.466	190
604.715	100
610.958	96
617.194	88
623.424	98
629.647	132
635.864	148
642.074	128
648.276	100
654.473	80
660.664	74
666.847	62
673.025	56
679.195	56
685.36	60
691.517	58
697.669	58
703.814	68
709.953	80
716.085	90
722.21	72
728.33	74
734.443	70
740.549	88
746.65	126
752.743	98
758.831	92
764.912	74
770.986	68
777.055	76
783.117	78
789.173	64
795.222	64
801.265	56
807.302	74
813.333	72
819.357	78
825.376	122
831.387	458
837.392	232
843.392	104
849.386	94
855.372	84
861.353	80
867.328	66
873.296	58
879.258	60
885.214	54
891.164	58
897.108	60
903.046	56
908.977	50
914.903	56
920.822	66
926.735	62
932.643	62
938.543	70
944.439	80
950.328	146
956.21	270
962.088	334
967.958	196
973.824	120
979.682	68
985.534	58
991.382	66
997.222	66
1003.06	54
1008.89	62
1014.71	64
1020.53	66
1026.34	74
1032.14	90
1037.94	88
1043.73	86
1049.52	78
1055.3	62
1061.08	58
1066.85	58
1072.61	58
1078.37	60
1084.12	64
1089.87	62
1095.61	68
1101.34	80
1107.07	148
1112.8	332
1118.51	152
1124.22	98
1129.93	84
1135.63	76
1141.32	90
1147.01	78
1152.69	62
1158.37	80
1164.04	76
1169.71	90
1175.37	92
1181.02	140
1186.67	236
1192.31	166
1197.95	148
1203.58	168
1209.2	122
1214.82	92
1220.44	78
1226.05	108
1231.65	130
1237.25	96
1242.84	84
1248.42	84
1254	86
1259.58	90
1265.15	80
1270.71	94
1276.27	102
1281.82	128
1287.37	136
1292.91	182
1298.45	324
1303.98	714
1309.5	476
1315.02	238
1320.53	182
1326.04	168
1331.54	158
1337.04	146
1342.53	136
1348.02	164
1353.5	158
1358.98	142
1364.45	152
1369.91	168
1375.37	318
1380.82	388
1386.27	254
1391.71	162
1397.15	134
1402.58	128
1408.01	128
1413.43	134
1418.85	150
1424.26	160
1429.66	178
1435.06	194
1440.46	194
1445.85	176
1451.23	154
1456.61	152
1461.98	138
1467.35	148
1472.71	142
1478.07	136
1483.42	126
1488.77	120
1494.11	110
1499.45	116
1504.78	114
1510.11	104
1515.43	104
1520.74	96
1526.05	102
1531.36	98
1536.66	100
1541.95	96
1547.24	106
1552.52	100
1557.8	90
1563.08	106
1568.35	110
1573.61	124
1578.87	140
1584.12	170
1589.37	216
1594.61	336
1599.85	428
1605.08	442
1610.31	314
1615.53	226
1620.75	160
1625.96	116
1631.17	96
1636.37	86
1641.57	84
1646.76	88
1651.95	74
1657.13	80
1662.31	78
1667.48	74
1672.65	76
1677.81	84
1682.97	74
1688.12	74
1693.27	76
1698.41	66
1702.26	74

File: ps-ppo-6jan25-0,0000-map2_Y08_X08.txt
204.377	330
211.048	304
217.712	290
224.369	412
231.019	802
237.661	780
244.297	540
250.924	340
257.546	254
264.16	178
270.766	170
277.365	162
283.958	204
290.543	324
297.121	388
303.693	270
310.256	228
316.813	210
323.362	210
329.905	222
336.441	224
342.969	184
349.491	192
356.006	196
362.513	160
369.014	170
375.508	176
381.994	122
388.473	116
394.947	110
401.412	120
407.871	144
414.323	182
420.768	154
427.206	104
433.637	94
440.062	86
446.479	86
452.89	74
459.293	80
465.691	96
472.081	130
478.463	198
484.84	258
491.21	152
497.573	96
503.929	92
510.279	142
516.621	146
522.957	146
529.287	194
535.609	354
541.925	372
548.234	200
554.536	192
560.832	358
567.12	1270
573.403	1750
579.679	414
585.948	280
592.211	238
598.466	186
604.715	104
610.958	86
617.194	88
623.424	104
629.647	122
635.864	142
642.074	120
648.276	86
654.473	80
660.664	68
666.847	62
673.025	60
679.195	54
685.36	56
691.517	56
697.669	54
703.814	66
709.953	72
716.085	88
722.21	68
728.33	72
734.443	70
740.549	88
746.65	120
752.743	116
758.831	80
764.912	64
770.986	62
777.055	74
783.117	70
789.173	62
795.222	60
801.265	58
807.302	70
813.333	68
819.357	80
825.376	110
831.387	428
837.392	222
843.392	80
849.386	86
855.372	76
861.353	72
867.328	74
873.296	58
879.258	56
885.214	50
891.164	50
897.108	58
903.046	52
908.977	56
914.903	50
920.822	56
926.735	56
932.643	62
938.543	70
944.439	82
950.328	128
956.21	264
962.088	312
967.958	194
973.824	122
979.682	78
985.534	66
991.382	76
997.222	60
1003.06	60
1008.89	58
1014.71	64
1020.53	70
1026.34	76
1032.14	84
1037.94	84
1043.73	78
1049.52	62
1055.3	58
1061.08	64
1066.85	60
1072.61	56
1078.37	58
1084.12	56
1089.87	62
1095.61	66
1101.34	72
1107.07	134
1112.8	314
1118.51	140
1124.22	94
1129.93	76
1135.63	70
1141.32	82
1147.01	68
1152.69	74
1158.37	82
1164.04	88
1169.71	82
1175.37	92
1181.02	122
1186.67	220
1192.31	146
1197.95	142
1203.58	144
1209.2	108
1214.82	98
1220.44	90
1226.05	94
1231.65	116
1237.25	96
1242.84	82
1248.42	80
1254	80
1259.58	80
1265.15	96
1270.71	86
1276.27	98
1281.82	118
1287.37	138
1292.91	170
1298.45	314
1303.98	670
1309.5	452
1315.02	236
1320.53	164
1326.04	150
1331.54	146
1337.04	140
1342.53	132
1348.02	142
1353.5	148
1358.98	134
1364.45	134
1369.91	164
1375.37	288
1380.82	382
1386.27	232
1391.71	152
1397.15	132
1402.58	120
1408.01	122
1413.43	130
1418.85	136
1424.26	154
1429.66	166
1435.06	190
1440.46	186
1445.85	178
1451.23	158
1456.61	144
1461.98	138
1467.35	136
1472.71	128
1478.07	128
1483.42	124
1488.77	104
1494.11	108
1499.45	106
1504.78	106
1510.11	100
1515.43	100
1520.74	98
1526.05	90
1531.36	102
1536.66	100
1541.95	90
1547.24	86
1552.52	98
1557.8	102
1563.08	104
1568.35	100
1573.61	120
1578.87	126
1584.12	164
1589.37	214
1594.61	300
1599.85	388
1605.08	392
1610.31	300
1615.53	218
1620.75	150
1625.96	118
1631.17	106
1636.37	84
1641.57	78
1646.76	78
1651.95	78
1657.13	76
1662.31	84
1667.48	76
1672.65	76
1677.81	68
1682.97	66
1688.12	62
1693.27	74
1698.41	76
1702.26	74

File: ps-ppo-6jan25-0,0000-map2_Y08_X09.txt
204.377	364
211.048	324
217.712	336
224.369	450
231.019	820
237.661	868
244.297	614
250.924	384
257.546	246
264.16	198
270.766	178
277.365	182
283.958	218
290.543	366
297.121	414
303.693	308
310.256	242
316.813	224
323.362	212
329.905	242
336.441	246
342.969	200
349.491	212
356.006	208
362.513	174
369.014	172
375.508	188
381.994	142
388.473	134
394.947	118
401.412	126
407.871	158
414.323	200
420.768	156
427.206	108
433.637	98
440.062	76
446.479	74
452.89	80
459.293	74
465.691	94
472.081	146
478.463	224
484.84	284
491.21	164
497.573	112
503.929	94
510.279	164
516.621	162
522.957	152
529.287	222
535.609	372
541.925	402
548.234	218
554.536	206
560.832	412
567.12	1390
573.403	1842
579.679	476
585.948	308
592.211	250
598.466	194
604.715	114
610.958	88
617.194	86
623.424	110
629.647	128
635.864	136
642.074	112
648.276	94
654.473	84
660.664	70
666.847	62
673.025	64
679.195	54
685.36	60
691.517	56
697.669	52
703.814	60
709.953	80
716.085	86
722.21	74
728.33	68
734.443	74
740.549	84
746.65	140
752.743	112
758.831	88
764.912	70
770.986	66
777.055	74
783.117	78
789.173	62
795.222	66
801.265	68
807.302	70
813.333	66
819.357	82
825.376	124
831.387	456
837.392	248
843.392	100
849.386	92
855.372	82
861.353	76
867.328	70
873.296	64
879.258	64
885.214	60
891.164	62
897.108	52
903.046	50
908.977	54
914.903	58
920.822	60
926.735	56
932.643	60
938.543	66
944.439	88
950.328	140
956.21	290
962.088	354
967.958	202
973.824	128
979.682	82
985.534	68
991.382	72
997.222	60
1003.06	66
1008.89	56
1014.71	64
1020.53	76
1026.34	80
1032.14	96
1037.94	88
1043.73	84
1049.52	74
1055.3	60
1061.08	56
1066.85	62
1072.61	68
1078.37	60
1084.12	60
1089.87	64
1095.61	68
1101.34	74
1107.07	138
1112.8	332
1118.51	158
1124.22	100
1129.93	84
1135.63	82
1141.32	84
1147.01	68
1152.69	68
1158.37	80
1164.04	94
1169.71	86
1175.37	94
1181.02	124
1186.67	224
1192.31	146
1197.95	144
1203.58	166
1209.2	114
1214.82	86
1220.44	92
1226.05	112
1231.65	128
1237.25	90
1242.84	80
1248.42	90
1254	82
1259.58	84
1265.15	90
1270.71	86
1276.27	102
1281.82	118
1287.37	154
1292.91	188
1298.45	318
1303.98	678
1309.5	496
1315.02	256
1320.53	200
1326.04	178
1331.54	158
1337.04	130
1342.53	130
1348.02	154
1353.5	152
1358.98	146
1364.45	142
1369.91	158
1375.37	338
1380.82	382
1386.27	258
1391.71	156
1397.15	128
1402.58	136
1408.01	126
1413.43	142
1418.85	138
1424.26	166
1429.66	168
1435.06	176
1440.46	198
1445.85	184
1451.23	150
1456.61	140
1461.98	152
1467.35	136
1472.71	140
1478.07	136
1483.42	124
1488.77	114
1494.11	110
1499.45	106
1504.78	104
1510.11	106
1515.43	108
1520.74	108
1526.05	100
1531.36	96
1536.66	98
1541.95	104
1547.24	102
1552.52	96
1557.8	106
1563.08	100
1568.35	114
1573.61	114
1578.87	140
1584.12	166
1589.37	226
1594.61	318
1599.85	424
1605.08	432
1610.31	334
1615.53	244
1620.75	160
1625.96	116
1631.17	102
1636.37	102
1641.57	82
1646.76	84
1651.95	80
1657.13	76
1662.31	84
1667.48	78
1672.65	82
1677.81	78
1682.97	70
1688.12	88
1693.27	72
1698.41	84
1702.26	74

File: ps-ppo-6jan25-0,0000-map2_Y08_X10.txt
204.377	374
211.048	340
217.712	340
224.369	474
231.019	910
237.661	914
244.297	636
250.924	398
257.546	280
264.16	208
270.766	184
277.365	190
283.958	228
290.543	374
297.121	424
303.693	336
310.256	282
316.813	244
323.362	246
329.905	260
336.441	250
342.969	228
349.491	196
356.006	216
362.513	202
369.014	180
375.508	194
381.994	156
388.473	140
394.947	126
401.412	132
407.871	154
414.323	208
420.768	164
427.206	128
433.637	104
440.062	88
446.479	80
452.89	86
459.293	92
465.691	106
472.081	170
478.463	212
484.84	296
491.21	172
497.573	116
503.929	96
510.279	180
516.621	164
522.957	166
529.287	246
535.609	402
541.925	404
548.234	222
554.536	218
560.832	408
567.12	1502
573.403	1980
579.679	504
585.948	330
592.211	268
598.466	212
604.715	116
610.958	90
617.194	96
623.424	108
629.647	134
635.864	148
642.074	122
648.276	108
654.473	80
660.664	82
666.847	64
673.025	60
679.195	60
685.36	58
691.517	56
697.669	66
703.814	66
709.953	80
716.085	106
722.21	80
728.33	74
734.443	90
740.549	90
746.65	146
752.743	118
758.831	92
764.912	76
770.986	72
777.055	80
783.117	78
789.173	72
795.222	68
801.265	60
807.302	78
813.333	80
819.357	88
825.376	124
831.387	498
837.392	250
843.392	98
849.386	94
855.372	88
861.353	78
867.328	68
873.296	64
879.258	66
885.214	60
891.164	62
897.108	60
903.046	60
908.977	54
914.903	54
920.822	62
926.735	60
932.643	62
938.543	80
944.439	88
950.328	134
956.21	304
962.088	356
967.958	224
973.824	134
979.682	92
985.534	72
991.382	74
997.222	54
1003.06	62
1008.89	64
1014.71	72
1020.53	74
1026.34	88
1032.14	100
1037.94	86
1043.73	82
1049.52	68
1055.3	66
1061.08	64
1066.85	64
1072.61	70
1078.37	62
1084.12	64
1089.87	70
1095.61	68
1101.34	86
1107.07	144
1112.8	370
1118.51	152
1124.22	108
1129.93	86
1135.63	86
1141.32	82
1147.01	74
1152.69	72
1158.37	86
1164.04	94
1169.71	82
1175.37	96
1181.02	154
1186.67	236
1192.31	166
1197.95	154
1203.58	176
1209.2	118
1214.82	100
1220.44	92
1226.05	116
1231.65	136
1237.25	84
1242.84	92
1248.42	86
1254	86
1259.58	90
1265.15	100
1270.71	102
1276.27	104
1281.82	122
1287.37	152
1292.91	186
1298.45	350
1303.98	748
1309.5	514
1315.02	266
1320.53	196
1326.04	170
1331.54	158
1337.04	152
1342.53	156
1348.02	166
1353.5	168
1358.98	156
1364.45	140
1369.91	170
1375.37	334
1380.82	422
1386.27	260
1391.71	156
1397.15	140
1402.58	132
1408.01	146
1413.43	132
1418.85	150
1424.26	192
1429.66	186
1435.06	212
1440.46	212
1445.85	188
1451.23	166
1456.61	156
1461.98	160
1467.35	154
1472.71	160
1478.07	140
1483.42	134
1488.77	124
1494.11	112
1499.45	112
1504.78	114
1510.11	116
1515.43	98
1520.74	110
1526.05	100
1531.36	108
1536.66	112
1541.95	110
1547.24	114
1552.52	102
1557.8	114
1563.08	108
1568.35	122
1573.61	124
1578.87	150
1584.12	172
1589.37	242
1594.61	336
1599.85	452
1605.08	458
1610.31	360
1615.53	242
1620.75	172
1625.96	128
1631.17	114
1636.37	100
1641.57	98
1646.76	82
1651.95	86
1657.13	86
1662.31	80
1667.48	76
1672.65	80
1677.81	78
1682.97	74
1688.12	82
1693.27	80
1698.41	82
1702.26	82

File: ps-ppo-6jan25-0,0000-map2_Y09_X00.txt
204.377	370
211.048	310
217.712	314
224.369	446
231.019	850
237.661	844
244.297	572
250.924	376
257.546	250
264.16	196
270.766	178
277.365	168
283.958	210
290.543	338
297.121	392
303.693	308
310.256	252
316.813	224
323.362	224
329.905	248
336.441	240
342.969	204
349.491	202
356.006	208
362.513	190
369.014	192
375.508	174
381.994	142
388.473	128
394.947	118
401.412	120
407.871	146
414.323	206
420.768	164
427.206	106
433.637	94
440.062	76
446.479	82
452.89	78
459.293	78
465.691	100
472.081	146
478.463	208
484.84	274
491.21	170
497.573	96
503.929	96
510.279	152
516.621	168
522.957	140
529.287	220
535.609	394
541.925	400
548.234	216
554.536	194
560.832	382
567.12	1352
573.403	1870
579.679	470
585.948	334
592.211	248
598.466	192
604.715	110
610.958	90
617.194	90
623.424	110
629.647	124
635.864	138
642.074	132
648.276	98
654.473	74
660.664	76
666.847	70
673.025	56
679.195	64
685.36	56
691.517	62
697.669	58
703.814	64
709.953	84
716.085	80
722.21	76
728.33	70
734.443	82
740.549	88
746.65	138
752.743	124
758.831	92
764.912	74
770.986	70
777.055	76
783.117	68
789.173	64
795.222	68
801.265	60
807.302	78
813.333	68
819.357	88
825.376	134
831.387	452
837.392	242
843.392	104
849.386	98
855.372	82
861.353	66
867.328	60
873.296	68
879.258	66
885.214	54
891.164	58
897.108	60
903.046	54
908.977	58
914.903	52
920.822	54
926.735	62
932.643	60
938.543	66
944.439	90
950.328	134
956.21	272
962.088	320
967.958	210
973.824	122
979.682	84
985.534	76
991.382	70
997.222	60
1003.06	64
1008.89	54
1014.71	72
1020.53	70
1026.34	82
1032.14	88
1037.94	92
1043.73	82
1049.52	72
1055.3	62
1061.08	64
1066.85	60
1072.61	58
1078.37	58
1084.12	70
1089.87	72
1095.61	70
1101.34	78
1107.07	142
1112.8	332
1118.51	150
1124.22	102
1129.93	78
1135.63	72
1141.32	88
1147.01	74
1152.69	62
1158.37	88
1164.04	92
1169.71	74
1175.37	88
1181.02	138
1186.67	222
1192.31	158
1197.95	158
1203.58	170
1209.2	128
1214.82	88
1220.44	86
1226.05	106
1231.65	128
1237.25	88
1242.84	90
1248.42	82
1254	86
1259.58	86
1265.15	84
1270.71	102
1276.27	106
1281.82	112
1287.37	146
1292.91	176
1298.45	344
1303.98	708
1309.5	484
1315.02	246
1320.53	174
1326.04	170
1331.54	164
1337.04	136
1342.53	140
1348.02	152
1353.5	162
1358.98	144
1364.45	158
1369.91	156
1375.37	320
1380.82	402
1386.27	264
1391.71	164
1397.15	132
1402.58	126
1408.01	124
1413.43	138
1418.85	148
1424.26	168
1429.66	182
1435.06	198
1440.46	196
1445.85	184
1451.23	166
1456.61	146
1461.98	146
1467.35	138
1472.71	138
1478.07	130
1483.42	146
1488.77	126
1494.11	112
1499.45	124
1504.78	106
1510.11	114
1515.43	102
1520.74	102
1526.05	100
1531.36	104
1536.66	106
1541.95	104
1547.24	112
1552.52	102
1557.8	94
1563.08	102
1568.35	110
1573.61	118
1578.87	140
1584.12	156
1589.37	224
1594.61	338
1599.85	430
1605.08	418
1610.31	332
1615.53	248
1620.75	160
1625.96	118
1631.17	108
1636.37	90
1641.57	88
1646.76	80
1651.95	78
1657.13	78
1662.31	80
1667.48	80
1672.65	68
1677.81	74
1682.97	80
1688.12	70
1693.27	78
1698.41	76
1702.26	78