Folder: NRC_SU25_Spectral_Classification/Jesse_Dataset_v2/Pure Raman/Polypropylene oxide/785nm (part 3)

File: ps-ppo-6jan25-0,0000-map2_Y03_X00.txt
204.377	390
211.048	350
217.712	346
224.369	488
231.019	920
237.661	962
244.297	678
250.924	430
257.546	288
264.16	212
270.766	182
277.365	186
283.958	236
290.543	362
297.121	444
303.693	352
310.256	282
316.813	246
323.362	234
329.905	262
336.441	264
342.969	228
349.491	212
356.006	232
362.513	186
369.014	202
375.508	214
381.994	154
388.473	132
394.947	120
401.412	132
407.871	156
414.323	230
420.768	172
427.206	130
433.637	110
440.062	90
446.479	82
452.89	86
459.293	74
465.691	110
472.081	156
478.463	238
484.84	308
491.21	172
497.573	110
503.929	104
510.279	162
516.621	176
522.957	158
529.287	236
535.609	406
541.925	432
548.234	242
554.536	228
560.832	416
567.12	1498
573.403	2022
579.679	498
585.948	344
592.211	276
598.466	214
604.715	128
610.958	96
617.194	98
623.424	114
629.647	134
635.864	154
642.074	142
648.276	98
654.473	90
660.664	80
666.847	68
673.025	66
679.195	68
685.36	60
691.517	62
697.669	66
703.814	62
709.953	86
716.085	100
722.21	76
728.33	72
734.443	86
740.549	90
746.65	154
752.743	128
758.831	96
764.912	78
770.986	72
777.055	82
783.117	86
789.173	66
795.222	76
801.265	68
807.302	76
813.333	68
819.357	96
825.376	154
831.387	518
837.392	258
843.392	102
849.386	108
855.372	90
861.353	86
867.328	74
873.296	70
879.258	70
885.214	54
891.164	58
897.108	54
903.046	56
908.977	62
914.903	68
920.822	56
926.735	58
932.643	66
938.543	74
944.439	102
950.328	148
956.21	322
962.088	366
967.958	238
973.824	136
979.682	80
985.534	74
991.382	86
997.222	58
1003.06	64
1008.89	64
1014.71	72
1020.53	84
1026.34	86
1032.14	100
1037.94	94
1043.73	84
1049.52	70
1055.3	70
1061.08	66
1066.85	66
1072.61	60
1078.37	62
1084.12	66
1089.87	66
1095.61	72
1101.34	84
1107.07	152
1112.8	368
1118.51	152
1124.22	100
1129.93	96
1135.63	88
1141.32	84
1147.01	78
1152.69	78
1158.37	84
1164.04	102
1169.71	88
1175.37	102
1181.02	142
1186.67	226
1192.31	174
1197.95	174
1203.58	180
1209.2	138
1214.82	96
1220.44	86
1226.05	116
1231.65	140
1237.25	98
1242.84	86
1248.42	90
1254	86
1259.58	88
1265.15	96
1270.71	100
1276.27	96
1281.82	124
1287.37	152
1292.91	192
1298.45	354
1303.98	800
1309.5	534
1315.02	266
1320.53	190
1326.04	180
1331.54	180
1337.04	142
1342.53	142
1348.02	176
1353.5	172
1358.98	158
1364.45	142
1369.91	184
1375.37	328
1380.82	430
1386.27	280
1391.71	164
1397.15	136
1402.58	142
1408.01	138
1413.43	156
1418.85	162
1424.26	166
1429.66	186
1435.06	204
1440.46	224
1445.85	196
1451.23	170
1456.61	168
1461.98	160
1467.35	164
1472.71	152
1478.07	146
1483.42	128
1488.77	120
1494.11	120
1499.45	118
1504.78	108
1510.11	114
1515.43	110
1520.74	114
1526.05	110
1531.36	112
1536.66	108
1541.95	110
1547.24	114
1552.52	104
1557.8	106
1563.08	114
1568.35	118
1573.61	118
1578.87	142
1584.12	170
1589.37	244
1594.61	350
1599.85	478
1605.08	478
1610.31	366
1615.53	248
1620.75	170
1625.96	136
1631.17	104
1636.37	92
1641.57	92
1646.76	94
1651.95	80
1657.13	74
1662.31	82
1667.48	80
1672.65	78
1677.81	78
1682.97	74
1688.12	78
1693.27	86
1698.41	78
1702.26	70

File: ps-ppo-6jan25-0,0000-map2_Y03_X03.txt
204.377	346
211.048	318
217.712	320
224.369	444
231.019	824
237.661	854
244.297	588
250.924	376
257.546	256
264.16	192
270.766	176
277.365	166
283.958	222
290.543	350
297.121	408
303.693	296
310.256	254
316.813	228
323.362	216
329.905	230
336.441	248
342.969	196
349.491	194
356.006	196
362.513	186
369.014	190
375.508	186
381.994	146
388.473	126
394.947	126
401.412	126
407.871	140
414.323	200
420.768	160
427.206	114
433.637	96
440.062	92
446.479	76
452.89	82
459.293	74
465.691	100
472.081	148
478.463	210
484.84	264
491.21	162
497.573	108
503.929	92
510.279	144
516.621	144
522.957	134
529.287	200
535.609	396
541.925	386
548.234	226
554.536	198
560.832	372
567.12	1356
573.403	1856
579.679	470
585.948	312
592.211	256
598.466	212
604.715	108
610.958	98
617.194	92
623.424	104
629.647	122
635.864	138
642.074	124
648.276	102
654.473	80
660.664	70
666.847	64
673.025	62
679.195	60
685.36	56
691.517	58
697.669	62
703.814	62
709.953	72
716.085	94
722.21	76
728.33	76
734.443	82
740.549	92
746.65	134
752.743	112
758.831	86
764.912	68
770.986	68
777.055	80
783.117	74
789.173	68
795.222	66
801.265	66
807.302	72
813.333	70
819.357	88
825.376	128
831.387	454
837.392	236
843.392	104
849.386	88
855.372	82
861.353	76
867.328	72
873.296	64
879.258	60
885.214	58
891.164	56
897.108	54
903.046	60
908.977	52
914.903	58
920.822	54
926.735	58
932.643	60
938.543	72
944.439	84
950.328	136
956.21	282
962.088	348
967.958	204
973.824	126
979.682	80
985.534	72
991.382	74
997.222	62
1003.06	60
1008.89	62
1014.71	68
1020.53	88
1026.34	86
1032.14	92
1037.94	90
1043.73	84
1049.52	68
1055.3	70
1061.08	60
1066.85	62
1072.61	58
1078.37	60
1084.12	58
1089.87	62
1095.61	64
1101.34	78
1107.07	138
1112.8	340
1118.51	154
1124.22	102
1129.93	88
1135.63	84
1141.32	78
1147.01	78
1152.69	62
1158.37	72
1164.04	90
1169.71	82
1175.37	96
1181.02	148
1186.67	228
1192.31	162
1197.95	150
1203.58	174
1209.2	120
1214.82	96
1220.44	82
1226.05	106
1231.65	128
1237.25	96
1242.84	78
1248.42	90
1254	80
1259.58	84
1265.15	84
1270.71	90
1276.27	94
1281.82	124
1287.37	144
1292.91	178
1298.45	330
1303.98	706
1309.5	492
1315.02	254
1320.53	186
1326.04	164
1331.54	168
1337.04	140
1342.53	132
1348.02	150
1353.5	156
1358.98	142
1364.45	148
1369.91	168
1375.37	310
1380.82	384
1386.27	248
1391.71	142
1397.15	132
1402.58	130
1408.01	132
1413.43	136
1418.85	158
1424.26	168
1429.66	182
1435.06	194
1440.46	200
1445.85	186
1451.23	170
1456.61	152
1461.98	158
1467.35	142
1472.71	134
1478.07	144
1483.42	130
1488.77	112
1494.11	122
1499.45	116
1504.78	118
1510.11	112
1515.43	102
1520.74	108
1526.05	108
1531.36	106
1536.66	106
1541.95	98
1547.24	108
1552.52	106
1557.8	94
1563.08	102
1568.35	110
1573.61	128
1578.87	130
1584.12	166
1589.37	220
1594.61	320
1599.85	420
1605.08	418
1610.31	338
1615.53	236
1620.75	168
1625.96	128
1631.17	116
1636.37	94
1641.57	96
1646.76	84
1651.95	88
1657.13	74
1662.31	72
1667.48	86
1672.65	74
1677.81	74
1682.97	82
1688.12	80
1693.27	72
1698.41	72
1702.26	80

File: ps-ppo-6jan25-0,0000-map2_Y03_X04.txt
204.377	386
211.048	332
217.712	330
224.369	460
231.019	874
237.661	900
244.297	624
250.924	392
257.546	262
264.16	206
270.766	174
277.365	184
283.958	224
290.543	348
297.121	416
303.693	320
310.256	258
316.813	218
323.362	240
329.905	256
336.441	234
342.969	208
349.491	204
356.006	216
362.513	184
369.014	196
375.508	184
381.994	144
388.473	128
394.947	126
401.412	128
407.871	150
414.323	220
420.768	160
427.206	112
433.637	102
440.062	82
446.479	74
452.89	78
459.293	76
465.691	104
472.081	134
478.463	208
484.84	280
491.21	168
497.573	110
503.929	94
510.279	160
516.621	160
522.957	144
529.287	218
535.609	398
541.925	402
548.234	224
554.536	198
560.832	408
567.12	1360
573.403	1910
579.679	484
585.948	318
592.211	260
598.466	208
604.715	118
610.958	92
617.194	90
623.424	98
629.647	136
635.864	148
642.074	126
648.276	106
654.473	80
660.664	68
666.847	60
673.025	66
679.195	58
685.36	58
691.517	52
697.669	56
703.814	62
709.953	86
716.085	88
722.21	70
728.33	84
734.443	84
740.549	88
746.65	138
752.743	106
758.831	90
764.912	78
770.986	78
777.055	80
783.117	70
789.173	76
795.222	66
801.265	68
807.302	68
813.333	70
819.357	76
825.376	134
831.387	472
837.392	228
843.392	106
849.386	82
855.372	96
861.353	88
867.328	68
873.296	66
879.258	64
885.214	64
891.164	58
897.108	58
903.046	66
908.977	58
914.903	58
920.822	52
926.735	56
932.643	62
938.543	72
944.439	80
950.328	156
956.21	296
962.088	340
967.958	232
973.824	136
979.682	86
985.534	72
991.382	80
997.222	66
1003.06	68
1008.89	66
1014.71	66
1020.53	70
1026.34	86
1032.14	100
1037.94	104
1043.73	82
1049.52	74
1055.3	70
1061.08	64
1066.85	66
1072.61	62
1078.37	68
1084.12	64
1089.87	68
1095.61	64
1101.34	74
1107.07	140
1112.8	366
1118.51	156
1124.22	106
1129.93	86
1135.63	84
1141.32	88
1147.01	78
1152.69	72
1158.37	82
1164.04	86
1169.71	86
1175.37	94
1181.02	142
1186.67	240
1192.31	160
1197.95	152
1203.58	172
1209.2	126
1214.82	92
1220.44	88
1226.05	104
1231.65	126
1237.25	98
1242.84	84
1248.42	86
1254	92
1259.58	84
1265.15	98
1270.71	98
1276.27	106
1281.82	120
1287.37	144
1292.91	202
1298.45	344
1303.98	764
1309.5	512
1315.02	262
1320.53	172
1326.04	178
1331.54	192
1337.04	148
1342.53	154
1348.02	168
1353.5	168
1358.98	154
1364.45	144
1369.91	172
1375.37	336
1380.82	410
1386.27	278
1391.71	166
1397.15	134
1402.58	142
1408.01	144
1413.43	146
1418.85	148
1424.26	172
1429.66	184
1435.06	196
1440.46	204
1445.85	186
1451.23	172
1456.61	154
1461.98	152
1467.35	150
1472.71	156
1478.07	150
1483.42	134
1488.77	134
1494.11	120
1499.45	114
1504.78	110
1510.11	110
1515.43	114
1520.74	104
1526.05	114
1531.36	98
1536.66	104
1541.95	102
1547.24	112
1552.52	110
1557.8	106
1563.08	110
1568.35	120
1573.61	122
1578.87	140
1584.12	160
1589.37	236
1594.61	328
1599.85	436
1605.08	446
1610.31	354
1615.53	256
1620.75	168
1625.96	124
1631.17	110
1636.37	96
1641.57	88
1646.76	84
1651.95	84
1657.13	78
1662.31	86
1667.48	80
1672.65	74
1677.81	82
1682.97	84
1688.12	72
1693.27	82
1698.41	84
1702.26	80

File: ps-ppo-6jan25-0,0000-map2_Y03_X06.txt
204.377	362
211.048	322
217.712	356
224.369	474
231.019	860
237.661	892
244.297	628
250.924	410
257.546	266
264.16	194
270.766	182
277.365	182
283.958	242
290.543	364
297.121	418
303.693	314
310.256	262
316.813	234
323.362	224
329.905	252
336.441	264
342.969	210
349.491	202
356.006	198
362.513	178
369.014	192
375.508	180
381.994	156
388.473	132
394.947	126
401.412	122
407.871	152
414.323	198
420.768	160
427.206	114
433.637	82
440.062	84
446.479	80
452.89	72
459.293	82
465.691	102
472.081	156
478.463	226
484.84	292
491.21	176
497.573	120
503.929	98
510.279	164
516.621	160
522.957	142
529.287	224
535.609	412
541.925	380
548.234	216
554.536	206
560.832	394
567.12	1398
573.403	1902
579.679	484
585.948	320
592.211	264
598.466	214
604.715	118
610.958	94
617.194	100
623.424	102
629.647	138
635.864	146
642.074	134
648.276	110
654.473	78
660.664	78
666.847	66
673.025	54
679.195	60
685.36	60
691.517	58
697.669	60
703.814	64
709.953	80
716.085	98
722.21	74
728.33	76
734.443	82
740.549	84
746.65	132
752.743	122
758.831	102
764.912	70
770.986	76
777.055	76
783.117	72
789.173	70
795.222	62
801.265	62
807.302	78
813.333	70
819.357	76
825.376	128
831.387	468
837.392	242
843.392	104
849.386	94
855.372	96
861.353	76
867.328	70
873.296	68
879.258	50
885.214	60
891.164	58
897.108	58
903.046	58
908.977	56
914.903	54
920.822	62
926.735	62
932.643	68
938.543	70
944.439	94
950.328	136
956.21	294
962.088	378
967.958	236
973.824	138
979.682	82
985.534	72
991.382	74
997.222	66
1003.06	66
1008.89	58
1014.71	64
1020.53	82
1026.34	82
1032.14	94
1037.94	96
1043.73	84
1049.52	62
1055.3	62
1061.08	58
1066.85	66
1072.61	60
1078.37	62
1084.12	68
1089.87	64
1095.61	70
1101.34	78
1107.07	148
1112.8	344
1118.51	142
1124.22	96
1129.93	84
1135.63	74
1141.32	84
1147.01	68
1152.69	72
1158.37	82
1164.04	96
1169.71	80
1175.37	100
1181.02	142
1186.67	234
1192.31	154
1197.95	154
1203.58	160
1209.2	128
1214.82	92
1220.44	88
1226.05	112
1231.65	124
1237.25	94
1242.84	96
1248.42	86
1254	88
1259.58	86
1265.15	90
1270.71	92
1276.27	104
1281.82	120
1287.37	156
1292.91	188
1298.45	328
1303.98	748
1309.5	518
1315.02	252
1320.53	192
1326.04	180
1331.54	164
1337.04	144
1342.53	152
1348.02	162
1353.5	158
1358.98	148
1364.45	156
1369.91	170
1375.37	320
1380.82	406
1386.27	278
1391.71	154
1397.15	134
1402.58	116
1408.01	138
1413.43	138
1418.85	154
1424.26	170
1429.66	172
1435.06	210
1440.46	206
1445.85	202
1451.23	158
1456.61	148
1461.98	148
1467.35	142
1472.71	140
1478.07	142
1483.42	138
1488.77	118
1494.11	128
1499.45	114
1504.78	118
1510.11	108
1515.43	118
1520.74	104
1526.05	108
1531.36	110
1536.66	108
1541.95	106
1547.24	102
1552.52	114
1557.8	108
1563.08	112
1568.35	114
1573.61	124
1578.87	144
1584.12	164
1589.37	218
1594.61	336
1599.85	438
1605.08	432
1610.31	344
1615.53	256
1620.75	162
1625.96	124
1631.17	108
1636.37	102
1641.57	92
1646.76	82
1651.95	84
1657.13	80
1662.31	76
1667.48	78
1672.65	80
1677.81	76
1682.97	86
1688.12	78
1693.27	76
1698.41	82
1702.26	76

File: ps-ppo-6jan25-0,0000-map2_Y03_X07.txt
204.377	374
211.048	330
217.712	336
224.369	476
231.019	890
237.661	914
244.297	618
250.924	374
257.546	264
264.16	204
270.766	176
277.365	186
283.958	224
290.543	356
297.121	456
303.693	320
310.256	254
316.813	226
323.362	218
329.905	248
336.441	232
342.969	210
349.491	210
356.006	216
362.513	190
369.014	194
375.508	188
381.994	148
388.473	140
394.947	128
401.412	124
407.871	150
414.323	224
420.768	160
427.206	116
433.637	112
440.062	84
446.479	74
452.89	82
459.293	78
465.691	100
472.081	146
478.463	216
484.84	292
491.21	166
497.573	118
503.929	94
510.279	162
516.621	162
522.957	164
529.287	226
535.609	406
541.925	416
548.234	218
554.536	206
560.832	394
567.12	1408
573.403	1972
579.679	502
585.948	332
592.211	254
598.466	198
604.715	112
610.958	88
617.194	92
623.424	110
629.647	132
635.864	160
642.074	124
648.276	102
654.473	94
660.664	68
666.847	62
673.025	62
679.195	58
685.36	62
691.517	54
697.669	56
703.814	56
709.953	76
716.085	100
722.21	72
728.33	64
734.443	86
740.549	86
746.65	138
752.743	122
758.831	92
764.912	70
770.986	66
777.055	78
783.117	80
789.173	66
795.222	62
801.265	66
807.302	78
813.333	72
819.357	84
825.376	132
831.387	474
837.392	238
843.392	104
849.386	86
855.372	92
861.353	82
867.328	64
873.296	58
879.258	60
885.214	60
891.164	60
897.108	58
903.046	62
908.977	52
914.903	56
920.822	60
926.735	60
932.643	58
938.543	70
944.439	84
950.328	144
956.21	310
962.088	368
967.958	216
973.824	132
979.682	88
985.534	76
991.382	80
997.222	70
1003.06	62
1008.89	64
1014.71	62
1020.53	76
1026.34	84
1032.14	96
1037.94	102
1043.73	68
1049.52	68
1055.3	62
1061.08	56
1066.85	62
1072.61	66
1078.37	56
1084.12	58
1089.87	68
1095.61	66
1101.34	74
1107.07	136
1112.8	346
1118.51	160
1124.22	98
1129.93	84
1135.63	82
1141.32	80
1147.01	68
1152.69	74
1158.37	80
1164.04	88
1169.71	84
1175.37	108
1181.02	148
1186.67	246
1192.31	168
1197.95	154
1203.58	174
1209.2	134
1214.82	90
1220.44	82
1226.05	110
1231.65	136
1237.25	102
1242.84	88
1248.42	76
1254	88
1259.58	90
1265.15	92
1270.71	98
1276.27	106
1281.82	120
1287.37	160
1292.91	182
1298.45	348
1303.98	756
1309.5	500
1315.02	264
1320.53	184
1326.04	176
1331.54	170
1337.04	154
1342.53	150
1348.02	158
1353.5	164
1358.98	148
1364.45	144
1369.91	186
1375.37	354
1380.82	414
1386.27	278
1391.71	148
1397.15	134
1402.58	122
1408.01	132
1413.43	132
1418.85	160
1424.26	182
1429.66	192
1435.06	206
1440.46	212
1445.85	204
1451.23	176
1456.61	144
1461.98	146
1467.35	142
1472.71	152
1478.07	154
1483.42	130
1488.77	116
1494.11	114
1499.45	118
1504.78	112
1510.11	116
1515.43	100
1520.74	102
1526.05	106
1531.36	106
1536.66	106
1541.95	114
1547.24	106
1552.52	108
1557.8	114
1563.08	120
1568.35	114
1573.61	126
1578.87	142
1584.12	166
1589.37	234
1594.61	332
1599.85	456
1605.08	470
1610.31	330
1615.53	262
1620.75	166
1625.96	128
1631.17	106
1636.37	96
1641.57	96
1646.76	82
1651.95	80
1657.13	84
1662.31	82
1667.48	80
1672.65	74
1677.81	74
1682.97	70
1688.12	78
1693.27	86
1698.41	76
1702.26	84

File: ps-ppo-6jan25-0,0000-map2_Y04_X00.txt
204.377	394
211.048	356
217.712	344
224.369	462
231.019	914
237.661	912
244.297	636
250.924	402
257.546	262
264.16	190
270.766	176
277.365	176
283.958	230
290.543	368
297.121	438
303.693	330
310.256	256
316.813	226
323.362	232
329.905	266
336.441	270
342.969	222
349.491	208
356.006	214
362.513	184
369.014	186
375.508	194
381.994	148
388.473	132
394.947	132
401.412	130
407.871	148
414.323	224
420.768	166
427.206	124
433.637	100
440.062	88
446.479	76
452.89	84
459.293	80
465.691	110
472.081	150
478.463	238
484.84	308
491.21	172
497.573	112
503.929	100
510.279	168
516.621	164
522.957	158
529.287	236
535.609	410
541.925	412
548.234	214
554.536	212
560.832	410
567.12	1436
573.403	1942
579.679	492
585.948	332
592.211	268
598.466	194
604.715	116
610.958	90
617.194	94
623.424	102
629.647	122
635.864	142
642.074	132
648.276	96
654.473	80
660.664	86
666.847	70
673.025	62
679.195	64
685.36	64
691.517	64
697.669	58
703.814	64
709.953	80
716.085	94
722.21	74
728.33	74
734.443	78
740.549	84
746.65	144
752.743	118
758.831	92
764.912	70
770.986	66
777.055	70
783.117	74
789.173	66
795.222	66
801.265	72
807.302	72
813.333	76
819.357	84
825.376	140
831.387	484
837.392	248
843.392	94
849.386	96
855.372	86
861.353	86
867.328	70
873.296	62
879.258	62
885.214	52
891.164	60
897.108	58
903.046	58
908.977	60
914.903	58
920.822	60
926.735	60
932.643	64
938.543	76
944.439	82
950.328	150
956.21	290
962.088	378
967.958	236
973.824	132
979.682	90
985.534	66
991.382	74
997.222	62
1003.06	66
1008.89	64
1014.71	66
1020.53	72
1026.34	84
1032.14	90
1037.94	90
1043.73	86
1049.52	74
1055.3	64
1061.08	64
1066.85	62
1072.61	68
1078.37	64
1084.12	66
1089.87	68
1095.61	70
1101.34	76
1107.07	138
1112.8	336
1118.51	152
1124.22	106
1129.93	88
1135.63	86
1141.32	90
1147.01	78
1152.69	76
1158.37	84
1164.04	98
1169.71	84
1175.37	92
1181.02	152
1186.67	242
1192.31	172
1197.95	142
1203.58	166
1209.2	124
1214.82	92
1220.44	92
1226.05	118
1231.65	130
1237.25	90
1242.84	84
1248.42	90
1254	86
1259.58	86
1265.15	100
1270.71	92
1276.27	108
1281.82	124
1287.37	148
1292.91	202
1298.45	354
1303.98	762
1309.5	506
1315.02	266
1320.53	204
1326.04	186
1331.54	172
1337.04	154
1342.53	150
1348.02	162
1353.5	170
1358.98	142
1364.45	138
1369.91	174
1375.37	352
1380.82	418
1386.27	268
1391.71	158
1397.15	140
1402.58	128
1408.01	130
1413.43	148
1418.85	164
1424.26	162
1429.66	180
1435.06	208
1440.46	194
1445.85	192
1451.23	160
1456.61	172
1461.98	152
1467.35	152
1472.71	152
1478.07	150
1483.42	136
1488.77	118
1494.11	116
1499.45	106
1504.78	110
1510.11	110
1515.43	110
1520.74	88
1526.05	122
1531.36	106
1536.66	104
1541.95	114
1547.24	104
1552.52	104
1557.8	120
1563.08	106
1568.35	122
1573.61	130
1578.87	146
1584.12	184
1589.37	232
1594.61	330
1599.85	430
1605.08	452
1610.31	336
1615.53	242
1620.75	172
1625.96	132
1631.17	110
1636.37	88
1641.57	86
1646.76	82
1651.95	70
1657.13	78
1662.31	80
1667.48	76
1672.65	72
1677.81	70
1682.97	78
1688.12	72
1693.27	80
1698.41	82
1702.26	72

File: ps-ppo-6jan25-0,0000-map2_Y04_X01.txt
204.377	372
211.048	346
217.712	356
224.369	474
231.019	924
237.661	948
244.297	632
250.924	408
257.546	284
264.16	212
270.766	186
277.365	190
283.958	228
290.543	378
297.121	430
303.693	352
310.256	260
316.813	220
323.362	232
329.905	262
336.441	268
342.969	216
349.491	204
356.006	224
362.513	192
369.014	186
375.508	194
381.994	154
388.473	138
394.947	118
401.412	122
407.871	164
414.323	206
420.768	162
427.206	128
433.637	100
440.062	90
446.479	84
452.89	74
459.293	84
465.691	112
472.081	164
478.463	228
484.84	294
491.21	182
497.573	120
503.929	102
510.279	156
516.621	162
522.957	144
529.287	220
535.609	402
541.925	416
548.234	240
554.536	204
560.832	412
567.12	1444
573.403	1980
579.679	524
585.948	332
592.211	276
598.466	198
604.715	116
610.958	98
617.194	94
623.424	110
629.647	134
635.864	156
642.074	128
648.276	102
654.473	90
660.664	70
666.847	64
673.025	58
679.195	62
685.36	62
691.517	62
697.669	58
703.814	60
709.953	84
716.085	100
722.21	82
728.33	78
734.443	88
740.549	94
746.65	140
752.743	114
758.831	92
764.912	72
770.986	68
777.055	74
783.117	80
789.173	72
795.222	60
801.265	70
807.302	76
813.333	74
819.357	88
825.376	138
831.387	500
837.392	262
843.392	96
849.386	102
855.372	100
861.353	84
867.328	64
873.296	66
879.258	70
885.214	62
891.164	58
897.108	58
903.046	60
908.977	56
914.903	60
920.822	56
926.735	54
932.643	66
938.543	70
944.439	92
950.328	162
956.21	290
962.088	364
967.958	232
973.824	124
979.682	82
985.534	66
991.382	72
997.222	60
1003.06	64
1008.89	66
1014.71	58
1020.53	72
1026.34	84
1032.14	104
1037.94	88
1043.73	86
1049.52	76
1055.3	68
1061.08	64
1066.85	70
1072.61	62
1078.37	64
1084.12	62
1089.87	60
1095.61	66
1101.34	86
1107.07	136
1112.8	348
1118.51	150
1124.22	106
1129.93	92
1135.63	80
1141.32	86
1147.01	76
1152.69	66
1158.37	80
1164.04	92
1169.71	88
1175.37	94
1181.02	158
1186.67	236
1192.31	166
1197.95	158
1203.58	174
1209.2	136
1214.82	94
1220.44	90
1226.05	110
1231.65	128
1237.25	102
1242.84	86
1248.42	90
1254	88
1259.58	88
1265.15	94
1270.71	100
1276.27	104
1281.82	132
1287.37	150
1292.91	202
1298.45	340
1303.98	744
1309.5	546
1315.02	282
1320.53	208
1326.04	198
1331.54	182
1337.04	134
1342.53	150
1348.02	176
1353.5	172
1358.98	146
1364.45	152
1369.91	180
1375.37	326
1380.82	420
1386.27	288
1391.71	170
1397.15	142
1402.58	140
1408.01	134
1413.43	144
1418.85	168
1424.26	186
1429.66	196
1435.06	200
1440.46	220
1445.85	194
1451.23	184
1456.61	154
1461.98	154
1467.35	164
1472.71	138
1478.07	142
1483.42	136
1488.77	124
1494.11	120
1499.45	118
1504.78	118
1510.11	106
1515.43	116
1520.74	104
1526.05	102
1531.36	108
1536.66	108
1541.95	110
1547.24	102
1552.52	114
1557.8	114
1563.08	104
1568.35	108
1573.61	118
1578.87	132
1584.12	164
1589.37	232
1594.61	328
1599.85	454
1605.08	456
1610.31	346
1615.53	238
1620.75	180
1625.96	144
1631.17	110
1636.37	98
1641.57	96
1646.76	84
1651.95	86
1657.13	88
1662.31	80
1667.48	80
1672.65	74
1677.81	78
1682.97	78
1688.12	72
1693.27	82
1698.41	74
1702.26	72

File: ps-ppo-6jan25-0,0000-map2_Y04_X05.txt
204.377	370
211.048	334
217.712	310
224.369	456
231.019	918
237.661	882
244.297	618
250.924	390
257.546	266
264.16	200
270.766	162
277.365	180
283.958	222
290.543	364
297.121	400
303.693	294
310.256	268
316.813	228
323.362	216
329.905	256
336.441	254
342.969	216
349.491	204
356.006	228
362.513	202
369.014	178
375.508	174
381.994	146
388.473	130
394.947	120
401.412	126
407.871	158
414.323	226
420.768	166
427.206	114
433.637	110
440.062	88
446.479	82
452.89	76
459.293	78
465.691	100
472.081	138
478.463	214
484.84	282
491.21	172
497.573	110
503.929	98
510.279	144
516.621	174
522.957	150
529.287	234
535.609	410
541.925	406
548.234	214
554.536	208
560.832	398
567.12	1400
573.403	1874
579.679	484
585.948	330
592.211	260
598.466	206
604.715	120
610.958	88
617.194	88
623.424	106
629.647	128
635.864	146
642.074	118
648.276	100
654.473	78
660.664	68
666.847	58
673.025	62
679.195	62
685.36	58
691.517	58
697.669	54
703.814	64
709.953	80
716.085	92
722.21	74
728.33	72
734.443	66
740.549	90
746.65	138
752.743	112
758.831	90
764.912	66
770.986	64
777.055	76
783.117	70
789.173	64
795.222	58
801.265	72
807.302	76
813.333	70
819.357	82
825.376	130
831.387	482
837.392	250
843.392	102
849.386	98
855.372	78
861.353	78
867.328	66
873.296	62
879.258	64
885.214	62
891.164	52
897.108	54
903.046	54
908.977	56
914.903	56
920.822	62
926.735	62
932.643	66
938.543	72
944.439	86
950.328	144
956.21	286
962.088	350
967.958	222
973.824	130
979.682	80
985.534	74
991.382	72
997.222	62
1003.06	56
1008.89	56
1014.71	62
1020.53	76
1026.34	82
1032.14	96
1037.94	94
1043.73	80
1049.52	68
1055.3	60
1061.08	66
1066.85	60
1072.61	64
1078.37	60
1084.12	58
1089.87	64
1095.61	66
1101.34	76
1107.07	142
1112.8	356
1118.51	146
1124.22	96
1129.93	74
1135.63	82
1141.32	78
1147.01	70
1152.69	70
1158.37	82
1164.04	86
1169.71	82
1175.37	100
1181.02	134
1186.67	226
1192.31	178
1197.95	146
1203.58	164
1209.2	124
1214.82	86
1220.44	86
1226.05	102
1231.65	126
1237.25	90
1242.84	86
1248.42	80
1254	86
1259.58	92
1265.15	88
1270.71	100
1276.27	106
1281.82	128
1287.37	156
1292.91	186
1298.45	334
1303.98	754
1309.5	506
1315.02	254
1320.53	190
1326.04	186
1331.54	178
1337.04	144
1342.53	142
1348.02	156
1353.5	160
1358.98	142
1364.45	146
1369.91	172
1375.37	336
1380.82	436
1386.27	280
1391.71	150
1397.15	146
1402.58	130
1408.01	126
1413.43	134
1418.85	136
1424.26	172
1429.66	182
1435.06	192
1440.46	202
1445.85	198
1451.23	158
1456.61	160
1461.98	154
1467.35	142
1472.71	142
1478.07	138
1483.42	122
1488.77	118
1494.11	108
1499.45	104
1504.78	110
1510.11	110
1515.43	108
1520.74	104
1526.05	114
1531.36	108
1536.66	98
1541.95	92
1547.24	102
1552.52	108
1557.8	102
1563.08	104
1568.35	116
1573.61	120
1578.87	134
1584.12	166
1589.37	236
1594.61	326
1599.85	464
1605.08	464
1610.31	356
1615.53	240
1620.75	168
1625.96	122
1631.17	110
1636.37	92
1641.57	84
1646.76	82
1651.95	82
1657.13	78
1662.31	80
1667.48	76
1672.65	82
1677.81	74
1682.97	78
1688.12	78
1693.27	72
1698.41	82
1702.26	72