Folder: NRC_SU25_Spectral_Classification/Jesse_Dataset_v2/Pure Raman/Polypropylene oxide/785nm (part 8)

File: ps-ppo-6jan25-0,0000-map2_Y09_X03.txt
204.377	324
211.048	282
217.712	302
224.369	442
231.019	796
237.661	798
244.297	524
250.924	352
257.546	242
264.16	184
270.766	168
277.365	160
283.958	196
290.543	318
297.121	374
303.693	282
310.256	230
316.813	198
323.362	200
329.905	224
336.441	232
342.969	196
349.491	176
356.006	182
362.513	168
369.014	174
375.508	166
381.994	126
388.473	110
394.947	118
401.412	122
407.871	140
414.323	188
420.768	148
427.206	104
433.637	90
440.062	80
446.479	80
452.89	70
459.293	78
465.691	92
472.081	134
478.463	196
484.84	260
491.21	158
497.573	98
503.929	90
510.279	146
516.621	160
522.957	134
529.287	202
535.609	346
541.925	354
548.234	194
554.536	184
560.832	336
567.12	1230
573.403	1672
579.679	444
585.948	274
592.211	224
598.466	184
604.715	100
610.958	82
617.194	82
623.424	104
629.647	126
635.864	118
642.074	112
648.276	90
654.473	82
660.664	68
666.847	60
673.025	50
679.195	58
685.36	60
691.517	64
697.669	58
703.814	64
709.953	76
716.085	94
722.21	66
728.33	68
734.443	70
740.549	88
746.65	118
752.743	102
758.831	80
764.912	58
770.986	62
777.055	68
783.117	78
789.173	64
795.222	66
801.265	64
807.302	66
813.333	62
819.357	78
825.376	122
831.387	426
837.392	208
843.392	90
849.386	84
855.372	80
861.353	70
867.328	64
873.296	56
879.258	58
885.214	54
891.164	60
897.108	56
903.046	56
908.977	52
914.903	50
920.822	52
926.735	60
932.643	62
938.543	68
944.439	80
950.328	142
956.21	262
962.088	312
967.958	194
973.824	114
979.682	78
985.534	62
991.382	64
997.222	60
1003.06	56
1008.89	58
1014.71	68
1020.53	72
1026.34	74
1032.14	90
1037.94	86
1043.73	74
1049.52	60
1055.3	58
1061.08	58
1066.85	56
1072.61	58
1078.37	54
1084.12	52
1089.87	64
1095.61	72
1101.34	72
1107.07	124
1112.8	304
1118.51	136
1124.22	88
1129.93	82
1135.63	66
1141.32	70
1147.01	68
1152.69	68
1158.37	78
1164.04	84
1169.71	82
1175.37	90
1181.02	136
1186.67	212
1192.31	156
1197.95	140
1203.58	144
1209.2	116
1214.82	86
1220.44	86
1226.05	98
1231.65	112
1237.25	86
1242.84	92
1248.42	82
1254	84
1259.58	88
1265.15	86
1270.71	88
1276.27	90
1281.82	118
1287.37	138
1292.91	162
1298.45	310
1303.98	620
1309.5	442
1315.02	226
1320.53	164
1326.04	166
1331.54	158
1337.04	136
1342.53	130
1348.02	152
1353.5	146
1358.98	136
1364.45	132
1369.91	154
1375.37	300
1380.82	360
1386.27	256
1391.71	140
1397.15	128
1402.58	124
1408.01	132
1413.43	126
1418.85	134
1424.26	158
1429.66	172
1435.06	174
1440.46	188
1445.85	162
1451.23	162
1456.61	148
1461.98	156
1467.35	148
1472.71	124
1478.07	144
1483.42	118
1488.77	114
1494.11	104
1499.45	114
1504.78	108
1510.11	102
1515.43	96
1520.74	104
1526.05	98
1531.36	96
1536.66	94
1541.95	104
1547.24	98
1552.52	100
1557.8	108
1563.08	102
1568.35	106
1573.61	118
1578.87	138
1584.12	168
1589.37	212
1594.61	286
1599.85	368
1605.08	388
1610.31	308
1615.53	220
1620.75	154
1625.96	116
1631.17	94
1636.37	88
1641.57	80
1646.76	84
1651.95	82
1657.13	72
1662.31	74
1667.48	74
1672.65	68
1677.81	76
1682.97	66
1688.12	76
1693.27	72
1698.41	76
1702.26	72

File: ps-ppo-6jan25-0,0000-map2_Y09_X06.txt
204.377	350
211.048	324
217.712	296
224.369	440
231.019	808
237.661	834
244.297	578
250.924	362
257.546	254
264.16	200
270.766	174
277.365	170
283.958	210
290.543	332
297.121	398
303.693	304
310.256	236
316.813	216
323.362	218
329.905	236
336.441	232
342.969	202
349.491	190
356.006	202
362.513	168
369.014	182
375.508	174
381.994	136
388.473	122
394.947	118
401.412	126
407.871	146
414.323	194
420.768	154
427.206	108
433.637	92
440.062	82
446.479	80
452.89	72
459.293	80
465.691	100
472.081	142
478.463	206
484.84	276
491.21	150
497.573	104
503.929	88
510.279	150
516.621	156
522.957	142
529.287	204
535.609	386
541.925	390
548.234	200
554.536	186
560.832	332
567.12	1290
573.403	1768
579.679	454
585.948	292
592.211	246
598.466	172
604.715	96
610.958	82
617.194	92
623.424	98
629.647	120
635.864	142
642.074	132
648.276	94
654.473	76
660.664	72
666.847	62
673.025	60
679.195	62
685.36	60
691.517	60
697.669	54
703.814	64
709.953	82
716.085	86
722.21	70
728.33	72
734.443	72
740.549	88
746.65	132
752.743	104
758.831	84
764.912	64
770.986	68
777.055	68
783.117	72
789.173	66
795.222	66
801.265	62
807.302	68
813.333	76
819.357	72
825.376	124
831.387	454
837.392	210
843.392	98
849.386	96
855.372	86
861.353	72
867.328	70
873.296	64
879.258	58
885.214	58
891.164	58
897.108	56
903.046	54
908.977	54
914.903	52
920.822	62
926.735	56
932.643	60
938.543	68
944.439	90
950.328	134
956.21	274
962.088	342
967.958	206
973.824	116
979.682	74
985.534	62
991.382	72
997.222	58
1003.06	60
1008.89	62
1014.71	64
1020.53	70
1026.34	84
1032.14	98
1037.94	90
1043.73	80
1049.52	72
1055.3	62
1061.08	64
1066.85	58
1072.61	54
1078.37	62
1084.12	58
1089.87	64
1095.61	76
1101.34	76
1107.07	138
1112.8	316
1118.51	148
1124.22	100
1129.93	86
1135.63	86
1141.32	86
1147.01	76
1152.69	66
1158.37	72
1164.04	88
1169.71	76
1175.37	94
1181.02	140
1186.67	226
1192.31	154
1197.95	142
1203.58	162
1209.2	120
1214.82	82
1220.44	88
1226.05	92
1231.65	112
1237.25	90
1242.84	90
1248.42	84
1254	88
1259.58	80
1265.15	84
1270.71	100
1276.27	102
1281.82	124
1287.37	148
1292.91	172
1298.45	316
1303.98	716
1309.5	454
1315.02	238
1320.53	174
1326.04	164
1331.54	156
1337.04	144
1342.53	148
1348.02	150
1353.5	162
1358.98	136
1364.45	144
1369.91	158
1375.37	312
1380.82	362
1386.27	244
1391.71	150
1397.15	128
1402.58	134
1408.01	126
1413.43	126
1418.85	150
1424.26	172
1429.66	166
1435.06	182
1440.46	210
1445.85	184
1451.23	150
1456.61	154
1461.98	146
1467.35	120
1472.71	142
1478.07	140
1483.42	114
1488.77	120
1494.11	106
1499.45	104
1504.78	96
1510.11	104
1515.43	104
1520.74	102
1526.05	100
1531.36	104
1536.66	100
1541.95	102
1547.24	106
1552.52	106
1557.8	96
1563.08	104
1568.35	110
1573.61	106
1578.87	138
1584.12	158
1589.37	226
1594.61	308
1599.85	422
1605.08	404
1610.31	306
1615.53	214
1620.75	152
1625.96	118
1631.17	102
1636.37	96
1641.57	88
1646.76	74
1651.95	86
1657.13	70
1662.31	82
1667.48	76
1672.65	72
1677.81	60
1682.97	78
1688.12	72
1693.27	74
1698.41	70
1702.26	70

File: ps-ppo-6jan25-0,0000-map2_Y09_X07.txt
204.377	340
211.048	306
217.712	304
224.369	444
231.019	832
237.661	806
244.297	546
250.924	372
257.546	228
264.16	178
270.766	164
277.365	168
283.958	224
290.543	356
297.121	396
303.693	308
310.256	240
316.813	224
323.362	212
329.905	224
336.441	236
342.969	204
349.491	176
356.006	196
362.513	184
369.014	176
375.508	174
381.994	136
388.473	120
394.947	116
401.412	118
407.871	140
414.323	194
420.768	164
427.206	106
433.637	94
440.062	80
446.479	80
452.89	74
459.293	70
465.691	96
472.081	138
478.463	218
484.84	266
491.21	146
497.573	98
503.929	98
510.279	138
516.621	164
522.957	140
529.287	228
535.609	388
541.925	384
548.234	204
554.536	182
560.832	382
567.12	1312
573.403	1716
579.679	434
585.948	310
592.211	248
598.466	190
604.715	96
610.958	86
617.194	80
623.424	104
629.647	118
635.864	144
642.074	124
648.276	92
654.473	74
660.664	66
666.847	64
673.025	64
679.195	60
685.36	58
691.517	56
697.669	54
703.814	52
709.953	74
716.085	92
722.21	76
728.33	72
734.443	72
740.549	82
746.65	144
752.743	106
758.831	80
764.912	70
770.986	66
777.055	76
783.117	74
789.173	74
795.222	62
801.265	60
807.302	76
813.333	64
819.357	80
825.376	120
831.387	458
837.392	220
843.392	96
849.386	92
855.372	84
861.353	72
867.328	68
873.296	56
879.258	62
885.214	52
891.164	56
897.108	48
903.046	54
908.977	54
914.903	54
920.822	58
926.735	56
932.643	60
938.543	66
944.439	86
950.328	144
956.21	274
962.088	318
967.958	208
973.824	118
979.682	84
985.534	64
991.382	72
997.222	58
1003.06	64
1008.89	58
1014.71	64
1020.53	76
1026.34	86
1032.14	84
1037.94	90
1043.73	76
1049.52	70
1055.3	66
1061.08	60
1066.85	58
1072.61	64
1078.37	58
1084.12	58
1089.87	60
1095.61	70
1101.34	74
1107.07	128
1112.8	330
1118.51	140
1124.22	90
1129.93	72
1135.63	82
1141.32	78
1147.01	76
1152.69	74
1158.37	74
1164.04	80
1169.71	72
1175.37	94
1181.02	132
1186.67	202
1192.31	152
1197.95	150
1203.58	162
1209.2	122
1214.82	94
1220.44	88
1226.05	106
1231.65	114
1237.25	92
1242.84	82
1248.42	82
1254	86
1259.58	88
1265.15	86
1270.71	86
1276.27	92
1281.82	132
1287.37	138
1292.91	162
1298.45	326
1303.98	664
1309.5	470
1315.02	244
1320.53	172
1326.04	168
1331.54	154
1337.04	134
1342.53	130
1348.02	142
1353.5	138
1358.98	126
1364.45	140
1369.91	162
1375.37	322
1380.82	368
1386.27	244
1391.71	138
1397.15	130
1402.58	128
1408.01	132
1413.43	118
1418.85	148
1424.26	166
1429.66	180
1435.06	176
1440.46	182
1445.85	180
1451.23	162
1456.61	144
1461.98	140
1467.35	136
1472.71	136
1478.07	128
1483.42	118
1488.77	112
1494.11	108
1499.45	102
1504.78	108
1510.11	106
1515.43	96
1520.74	110
1526.05	96
1531.36	98
1536.66	110
1541.95	108
1547.24	98
1552.52	104
1557.8	90
1563.08	100
1568.35	116
1573.61	120
1578.87	142
1584.12	162
1589.37	216
1594.61	300
1599.85	412
1605.08	420
1610.31	326
1615.53	228
1620.75	142
1625.96	122
1631.17	90
1636.37	92
1641.57	86
1646.76	78
1651.95	80
1657.13	78
1662.31	80
1667.48	72
1672.65	78
1677.81	74
1682.97	72
1688.12	68
1693.27	74
1698.41	82
1702.26	72

File: ps-ppo-6jan25-0,0000-map2_Y09_X09.txt
204.377	370
211.048	334
217.712	342
224.369	466
231.019	908
237.661	902
244.297	598
250.924	412
257.546	262
264.16	216
270.766	164
277.365	186
283.958	234
290.543	368
297.121	418
303.693	306
310.256	264
316.813	244
323.362	218
329.905	266
336.441	252
342.969	206
349.491	192
356.006	216
362.513	194
369.014	186
375.508	198
381.994	154
388.473	134
394.947	114
401.412	128
407.871	150
414.323	204
420.768	160
427.206	116
433.637	96
440.062	94
446.479	76
452.89	72
459.293	80
465.691	104
472.081	150
478.463	220
484.84	298
491.21	174
497.573	114
503.929	104
510.279	152
516.621	164
522.957	152
529.287	242
535.609	400
541.925	410
548.234	216
554.536	218
560.832	408
567.12	1414
573.403	1954
579.679	476
585.948	328
592.211	264
598.466	210
604.715	116
610.958	94
617.194	92
623.424	106
629.647	126
635.864	142
642.074	114
648.276	104
654.473	92
660.664	68
666.847	72
673.025	60
679.195	66
685.36	62
691.517	66
697.669	62
703.814	56
709.953	72
716.085	98
722.21	82
728.33	72
734.443	80
740.549	98
746.65	130
752.743	116
758.831	92
764.912	70
770.986	66
777.055	70
783.117	76
789.173	72
795.222	68
801.265	68
807.302	72
813.333	78
819.357	78
825.376	132
831.387	508
837.392	250
843.392	108
849.386	96
855.372	94
861.353	78
867.328	76
873.296	64
879.258	56
885.214	54
891.164	56
897.108	62
903.046	60
908.977	58
914.903	52
920.822	66
926.735	60
932.643	72
938.543	74
944.439	90
950.328	152
956.21	286
962.088	354
967.958	206
973.824	134
979.682	76
985.534	70
991.382	82
997.222	62
1003.06	66
1008.89	60
1014.71	58
1020.53	78
1026.34	84
1032.14	104
1037.94	88
1043.73	80
1049.52	76
1055.3	70
1061.08	66
1066.85	66
1072.61	64
1078.37	68
1084.12	66
1089.87	70
1095.61	74
1101.34	82
1107.07	140
1112.8	352
1118.51	148
1124.22	82
1129.93	86
1135.63	86
1141.32	86
1147.01	74
1152.69	78
1158.37	86
1164.04	94
1169.71	86
1175.37	100
1181.02	150
1186.67	248
1192.31	168
1197.95	140
1203.58	176
1209.2	134
1214.82	94
1220.44	94
1226.05	108
1231.65	136
1237.25	102
1242.84	86
1248.42	84
1254	90
1259.58	88
1265.15	98
1270.71	90
1276.27	94
1281.82	122
1287.37	148
1292.91	176
1298.45	358
1303.98	756
1309.5	494
1315.02	256
1320.53	184
1326.04	180
1331.54	170
1337.04	132
1342.53	136
1348.02	152
1353.5	168
1358.98	148
1364.45	148
1369.91	168
1375.37	332
1380.82	412
1386.27	274
1391.71	158
1397.15	144
1402.58	130
1408.01	136
1413.43	138
1418.85	154
1424.26	174
1429.66	178
1435.06	192
1440.46	216
1445.85	192
1451.23	160
1456.61	162
1461.98	148
1467.35	156
1472.71	152
1478.07	134
1483.42	130
1488.77	120
1494.11	122
1499.45	108
1504.78	120
1510.11	114
1515.43	118
1520.74	102
1526.05	98
1531.36	100
1536.66	110
1541.95	100
1547.24	102
1552.52	100
1557.8	118
1563.08	118
1568.35	120
1573.61	126
1578.87	140
1584.12	188
1589.37	234
1594.61	322
1599.85	436
1605.08	444
1610.31	340
1615.53	250
1620.75	154
1625.96	120
1631.17	106
1636.37	102
1641.57	96
1646.76	84
1651.95	84
1657.13	82
1662.31	90
1667.48	74
1672.65	74
1677.81	78
1682.97	80
1688.12	78
1693.27	80
1698.41	74
1702.26	74

File: ps-ppo-6jan25-0,0000-map2_Y10_X02.txt
204.377	282
211.048	268
217.712	258
224.369	366
231.019	670
237.661	682
244.297	492
250.924	318
257.546	204
264.16	160
270.766	148
277.365	148
283.958	186
290.543	268
297.121	326
303.693	260
310.256	206
316.813	184
323.362	176
329.905	210
336.441	192
342.969	156
349.491	140
356.006	182
362.513	150
369.014	158
375.508	138
381.994	126
388.473	116
394.947	110
401.412	112
407.871	126
414.323	176
420.768	130
427.206	96
433.637	86
440.062	80
446.479	72
452.89	76
459.293	72
465.691	92
472.081	122
478.463	170
484.84	234
491.21	128
497.573	96
503.929	80
510.279	130
516.621	136
522.957	120
529.287	166
535.609	314
541.925	310
548.234	176
554.536	166
560.832	306
567.12	1034
573.403	1374
579.679	378
585.948	252
592.211	194
598.466	158
604.715	96
610.958	74
617.194	76
623.424	90
629.647	116
635.864	120
642.074	112
648.276	78
654.473	62
660.664	68
666.847	64
673.025	56
679.195	62
685.36	50
691.517	54
697.669	54
703.814	56
709.953	68
716.085	86
722.21	70
728.33	72
734.443	74
740.549	76
746.65	110
752.743	102
758.831	80
764.912	54
770.986	56
777.055	60
783.117	62
789.173	58
795.222	54
801.265	58
807.302	72
813.333	68
819.357	68
825.376	104
831.387	368
837.392	184
843.392	84
849.386	80
855.372	68
861.353	62
867.328	62
873.296	52
879.258	56
885.214	50
891.164	50
897.108	60
903.046	50
908.977	50
914.903	48
920.822	56
926.735	56
932.643	60
938.543	50
944.439	78
950.328	122
956.21	228
962.088	272
967.958	174
973.824	100
979.682	74
985.534	60
991.382	62
997.222	60
1003.06	52
1008.89	52
1014.71	50
1020.53	68
1026.34	74
1032.14	68
1037.94	78
1043.73	72
1049.52	66
1055.3	60
1061.08	58
1066.85	52
1072.61	58
1078.37	62
1084.12	56
1089.87	54
1095.61	60
1101.34	62
1107.07	110
1112.8	252
1118.51	112
1124.22	82
1129.93	70
1135.63	56
1141.32	68
1147.01	72
1152.69	64
1158.37	72
1164.04	86
1169.71	64
1175.37	84
1181.02	106
1186.67	168
1192.31	134
1197.95	114
1203.58	134
1209.2	94
1214.82	68
1220.44	72
1226.05	98
1231.65	102
1237.25	84
1242.84	72
1248.42	74
1254	80
1259.58	78
1265.15	80
1270.71	82
1276.27	84
1281.82	104
1287.37	110
1292.91	154
1298.45	252
1303.98	540
1309.5	372
1315.02	188
1320.53	162
1326.04	138
1331.54	134
1337.04	124
1342.53	120
1348.02	124
1353.5	132
1358.98	128
1364.45	118
1369.91	126
1375.37	252
1380.82	296
1386.27	212
1391.71	136
1397.15	106
1402.58	108
1408.01	114
1413.43	128
1418.85	124
1424.26	146
1429.66	144
1435.06	160
1440.46	160
1445.85	144
1451.23	124
1456.61	124
1461.98	122
1467.35	106
1472.71	114
1478.07	112
1483.42	110
1488.77	96
1494.11	92
1499.45	98
1504.78	90
1510.11	90
1515.43	96
1520.74	92
1526.05	90
1531.36	88
1536.66	90
1541.95	92
1547.24	92
1552.52	78
1557.8	88
1563.08	90
1568.35	92
1573.61	96
1578.87	108
1584.12	132
1589.37	176
1594.61	250
1599.85	338
1605.08	336
1610.31	254
1615.53	180
1620.75	130
1625.96	102
1631.17	86
1636.37	76
1641.57	62
1646.76	74
1651.95	74
1657.13	72
1662.31	66
1667.48	66
1672.65	68
1677.81	68
1682.97	66
1688.12	58
1693.27	66
1698.41	70
1702.26	68

File: ps-ppo-6jan25-0,0000-map2_Y10_X03.txt
204.377	324
211.048	284
217.712	306
224.369	402
231.019	772
237.661	788
244.297	546
250.924	352
257.546	234
264.16	168
270.766	158
277.365	166
283.958	208
290.543	314
297.121	380
303.693	270
310.256	230
316.813	190
323.362	208
329.905	208
336.441	238
342.969	184
349.491	184
356.006	188
362.513	172
369.014	162
375.508	180
381.994	130
388.473	108
394.947	112
401.412	100
407.871	144
414.323	184
420.768	138
427.206	114
433.637	88
440.062	78
446.479	74
452.89	72
459.293	74
465.691	98
472.081	154
478.463	178
484.84	258
491.21	148
497.573	100
503.929	86
510.279	138
516.621	148
522.957	132
529.287	204
535.609	350
541.925	340
548.234	182
554.536	174
560.832	366
567.12	1222
573.403	1664
579.679	438
585.948	288
592.211	236
598.466	178
604.715	110
610.958	82
617.194	88
623.424	98
629.647	120
635.864	132
642.074	100
648.276	92
654.473	68
660.664	68
666.847	68
673.025	50
679.195	54
685.36	62
691.517	58
697.669	58
703.814	60
709.953	78
716.085	84
722.21	66
728.33	72
734.443	74
740.549	78
746.65	110
752.743	120
758.831	90
764.912	70
770.986	68
777.055	74
783.117	76
789.173	58
795.222	66
801.265	58
807.302	68
813.333	74
819.357	78
825.376	126
831.387	386
837.392	220
843.392	98
849.386	84
855.372	82
861.353	72
867.328	60
873.296	60
879.258	58
885.214	60
891.164	58
897.108	56
903.046	56
908.977	60
914.903	56
920.822	54
926.735	56
932.643	62
938.543	66
944.439	82
950.328	126
956.21	258
962.088	308
967.958	188
973.824	116
979.682	80
985.534	70
991.382	58
997.222	56
1003.06	60
1008.89	56
1014.71	70
1020.53	72
1026.34	74
1032.14	90
1037.94	86
1043.73	80
1049.52	70
1055.3	68
1061.08	64
1066.85	60
1072.61	56
1078.37	58
1084.12	62
1089.87	60
1095.61	62
1101.34	76
1107.07	122
1112.8	302
1118.51	130
1124.22	94
1129.93	76
1135.63	84
1141.32	90
1147.01	70
1152.69	60
1158.37	72
1164.04	80
1169.71	82
1175.37	80
1181.02	122
1186.67	212
1192.31	148
1197.95	134
1203.58	156
1209.2	116
1214.82	86
1220.44	72
1226.05	88
1231.65	114
1237.25	82
1242.84	76
1248.42	84
1254	80
1259.58	86
1265.15	78
1270.71	76
1276.27	94
1281.82	110
1287.37	140
1292.91	158
1298.45	312
1303.98	636
1309.5	414
1315.02	228
1320.53	176
1326.04	166
1331.54	150
1337.04	132
1342.53	142
1348.02	158
1353.5	152
1358.98	142
1364.45	138
1369.91	148
1375.37	280
1380.82	356
1386.27	236
1391.71	142
1397.15	126
1402.58	122
1408.01	122
1413.43	120
1418.85	138
1424.26	150
1429.66	154
1435.06	170
1440.46	192
1445.85	176
1451.23	168
1456.61	146
1461.98	128
1467.35	138
1472.71	128
1478.07	132
1483.42	124
1488.77	108
1494.11	106
1499.45	96
1504.78	98
1510.11	102
1515.43	104
1520.74	102
1526.05	100
1531.36	112
1536.66	92
1541.95	96
1547.24	102
1552.52	106
1557.8	98
1563.08	102
1568.35	108
1573.61	116
1578.87	124
1584.12	154
1589.37	216
1594.61	282
1599.85	384
1605.08	370
1610.31	306
1615.53	214
1620.75	150
1625.96	114
1631.17	98
1636.37	86
1641.57	78
1646.76	82
1651.95	74
1657.13	78
1662.31	66
1667.48	66
1672.65	70
1677.81	74
1682.97	60
1688.12	78
1693.27	76
1698.41	72
1702.26	72

File: ps-ppo-6jan25-0,0000-map2_Y10_X04.txt
204.377	354
211.048	304
217.712	318
224.369	410
231.019	820
237.661	836
244.297	556
250.924	346
257.546	234
264.16	194
270.766	166
277.365	170
283.958	194
290.543	344
297.121	378
303.693	296
310.256	242
316.813	200
323.362	212
329.905	226
336.441	228
342.969	196
349.491	184
356.006	196
362.513	180
369.014	180
375.508	176
381.994	144
388.473	124
394.947	112
401.412	122
407.871	138
414.323	200
420.768	150
427.206	112
433.637	84
440.062	84
446.479	78
452.89	74
459.293	84
465.691	102
472.081	132
478.463	210
484.84	250
491.21	162
497.573	98
503.929	100
510.279	146
516.621	154
522.957	150
529.287	198
535.609	360
541.925	354
548.234	200
554.536	184
560.832	370
567.12	1272
573.403	1740
579.679	436
585.948	308
592.211	240
598.466	184
604.715	106
610.958	92
617.194	82
623.424	100
629.647	116
635.864	130
642.074	118
648.276	84
654.473	84
660.664	74
666.847	66
673.025	60
679.195	56
685.36	54
691.517	56
697.669	56
703.814	66
709.953	72
716.085	94
722.21	60
728.33	78
734.443	72
740.549	90
746.65	124
752.743	112
758.831	84
764.912	70
770.986	72
777.055	80
783.117	70
789.173	68
795.222	58
801.265	66
807.302	72
813.333	62
819.357	82
825.376	128
831.387	450
837.392	210
843.392	102
849.386	90
855.372	82
861.353	66
867.328	70
873.296	68
879.258	62
885.214	62
891.164	54
897.108	52
903.046	54
908.977	56
914.903	44
920.822	56
926.735	52
932.643	58
938.543	70
944.439	88
950.328	134
956.21	278
962.088	318
967.958	194
973.824	128
979.682	84
985.534	66
991.382	68
997.222	66
1003.06	64
1008.89	68
1014.71	60
1020.53	76
1026.34	78
1032.14	96
1037.94	86
1043.73	72
1049.52	72
1055.3	64
1061.08	58
1066.85	60
1072.61	64
1078.37	60
1084.12	66
1089.87	64
1095.61	64
1101.34	76
1107.07	140
1112.8	326
1118.51	152
1124.22	94
1129.93	82
1135.63	80
1141.32	82
1147.01	72
1152.69	72
1158.37	76
1164.04	90
1169.71	86
1175.37	92
1181.02	126
1186.67	210
1192.31	150
1197.95	148
1203.58	160
1209.2	122
1214.82	86
1220.44	84
1226.05	106
1231.65	122
1237.25	92
1242.84	92
1248.42	88
1254	88
1259.58	88
1265.15	96
1270.71	88
1276.27	102
1281.82	122
1287.37	134
1292.91	160
1298.45	320
1303.98	674
1309.5	468
1315.02	218
1320.53	176
1326.04	156
1331.54	150
1337.04	136
1342.53	138
1348.02	154
1353.5	162
1358.98	142
1364.45	132
1369.91	154
1375.37	328
1380.82	382
1386.27	250
1391.71	150
1397.15	142
1402.58	136
1408.01	126
1413.43	134
1418.85	144
1424.26	160
1429.66	176
1435.06	194
1440.46	194
1445.85	170
1451.23	160
1456.61	150
1461.98	146
1467.35	140
1472.71	144
1478.07	136
1483.42	124
1488.77	118
1494.11	106
1499.45	108
1504.78	114
1510.11	108
1515.43	106
1520.74	106
1526.05	98
1531.36	94
1536.66	98
1541.95	104
1547.24	102
1552.52	96
1557.8	98
1563.08	106
1568.35	102
1573.61	118
1578.87	122
1584.12	164
1589.37	218
1594.61	304
1599.85	400
1605.08	410
1610.31	312
1615.53	210
1620.75	154
1625.96	116
1631.17	100
1636.37	92
1641.57	78
1646.76	92
1651.95	84
1657.13	74
1662.31	70
1667.48	80
1672.65	72
1677.81	68
1682.97	78
1688.12	74
1693.27	72
1698.41	76
1702.26	74

File: ps-ppo-6jan25-0,0000-map2_Y10_X05.txt
204.377	366
211.048	316
217.712	336
224.369	460
231.019	846
237.661	846
244.297	592
250.924	390
257.546	254
264.16	184
270.766	178
277.365	176
283.958	212
290.543	354
297.121	414
303.693	308
310.256	242
316.813	224
323.362	224
329.905	240
336.441	252
342.969	212
349.491	188
356.006	184
362.513	188
369.014	196
375.508	182
381.994	138
388.473	126
394.947	122
401.412	124
407.871	158
414.323	200
420.768	158
427.206	126
433.637	90
440.062	90
446.479	82
452.89	82
459.293	76
465.691	92
472.081	142
478.463	214
484.84	264
491.21	164
497.573	110
503.929	102
510.279	166
516.621	170
522.957	142
529.287	212
535.609	382
541.925	386
548.234	192
554.536	208
560.832	372
567.12	1376
573.403	1852
579.679	460
585.948	292
592.211	254
598.466	176
604.715	112
610.958	98
617.194	84
623.424	92
629.647	124
635.864	148
642.074	124
648.276	98
654.473	80
660.664	74
666.847	64
673.025	56
679.195	54
685.36	58
691.517	60
697.669	52
703.814	58
709.953	80
716.085	90
722.21	74
728.33	74
734.443	74
740.549	86
746.65	144
752.743	128
758.831	86
764.912	62
770.986	70
777.055	68
783.117	78
789.173	68
795.222	60
801.265	66
807.302	64
813.333	72
819.357	84
825.376	132
831.387	474
837.392	234
843.392	94
849.386	92
855.372	84
861.353	70
867.328	64
873.296	60
879.258	64
885.214	60
891.164	50
897.108	52
903.046	56
908.977	56
914.903	62
920.822	52
926.735	56
932.643	66
938.543	66
944.439	94
950.328	146
956.21	288
962.088	338
967.958	204
973.824	128
979.682	80
985.534	74
991.382	66
997.222	60
1003.06	52
1008.89	64
1014.71	62
1020.53	66
1026.34	84
1032.14	90
1037.94	94
1043.73	72
1049.52	62
1055.3	60
1061.08	64
1066.85	58
1072.61	62
1078.37	66
1084.12	64
1089.87	64
1095.61	62
1101.34	74
1107.07	136
1112.8	324
1118.51	152
1124.22	92
1129.93	80
1135.63	86
1141.32	82
1147.01	80
1152.69	72
1158.37	84
1164.04	92
1169.71	86
1175.37	92
1181.02	124
1186.67	224
1192.31	158
1197.95	140
1203.58	156
1209.2	120
1214.82	84
1220.44	86
1226.05	94
1231.65	132
1237.25	96
1242.84	82
1248.42	82
1254	86
1259.58	90
1265.15	94
1270.71	96
1276.27	96
1281.82	128
1287.37	150
1292.91	176
1298.45	322
1303.98	716
1309.5	480
1315.02	248
1320.53	190
1326.04	172
1331.54	160
1337.04	136
1342.53	146
1348.02	148
1353.5	162
1358.98	144
1364.45	146
1369.91	168
1375.37	316
1380.82	390
1386.27	276
1391.71	150
1397.15	126
1402.58	130
1408.01	128
1413.43	126
1418.85	146
1424.26	168
1429.66	174
1435.06	182
1440.46	202
1445.85	182
1451.23	158
1456.61	142
1461.98	148
1467.35	162
1472.71	134
1478.07	120
1483.42	132
1488.77	122
1494.11	106
1499.45	112
1504.78	116
1510.11	106
1515.43	110
1520.74	102
1526.05	108
1531.36	106
1536.66	108
1541.95	92
1547.24	104
1552.52	98
1557.8	102
1563.08	106
1568.35	110
1573.61	126
1578.87	126
1584.12	176
1589.37	216
1594.61	312
1599.85	430
1605.08	414
1610.31	310
1615.53	230
1620.75	146
1625.96	122
1631.17	96
1636.37	96
1641.57	82
1646.76	80
1651.95	84
1657.13	76
1662.31	86
1667.48	70
1672.65	70
1677.81	74
1682.97	72
1688.12	76
1693.27	76
1698.41	72
1702.26	76