Folder: NRC_SU25_Spectral_Classification/Jesse_Dataset_v2/Pure Raman/Polypropylene oxide/785nm

Note: README.md
# Spectral Classification Project

This repository contains implementations of various machine learning and deep learning methods for the **one-shot classification of chemical spectra**. The goal is to identify the **chemical identity** of an unknown **Raman spectrum** by finding the best match from a reference library of known spectra.

The project explores and compares **four distinct approaches**, inspired by the methods described in *[Halas et al., ACS Nano, 2023](https://doi.org/10.1021/acsnano.3c05510)*.


---

## Core Concept: Spectral Identification

The fundamental problem is to take a **high-dimensional spectrum** from an unknown sample and accurately identify it by comparing it against a **library of known spectra**. Each method in this repository tackles this problem through a different **feature extraction** and **similarity matching** strategy.

---

## Included Implementations

This repository includes four primary methods for spectral classification:

- `CaPSim` (Characteristic Peak Similarity)
- `CaPSim` with `k-NN` Classifier
- `PCA` (Principal Component Analysis) Classifier
- `Siamese Network` for One-Shot Learning

All methods assume the data is provided in **CSV format**, with one file for the **reference library** and one for the **query spectra**. The **last column** in each file should be named **`Label`** and contain the chemical identifier.

---

### 1. CaPSim (Characteristic Peak Similarity)
**Script:** `CaPSim.py`  
**Approach:** Local peak-based dot-product similarity

**Concept:**  
This method directly implements the approach described in the Halas et al. paper. It assumes that key information in a spectrum is concentrated in a few discrete **characteristic peaks (CPs)**.

**Workflow:**
- **Preprocessing:** Baseline correction and L2 normalization
- **Feature Definition:** Identify most frequent or intense peaks per class → class-specific CPs
- **Feature Extraction:** Extract maximum intensity around CPs for each query
- **Similarity Matching:** Compute mean dot-product (CaPSim score); assign query to class with highest score

---

### 2. CaPSim with k-NN Classifier
**Script:** `CaPSim_kNN.py`  
**Approach:** Local peak-based features with supervised classification

**Concept:**  
An extension of CaPSim that uses the same CP-based features but replaces dot-product similarity with a learned `k-Nearest Neighbors` classifier.

**Workflow:**
- **Preprocessing:** Same as baseline CaPSim
- **Feature Definition:** Global CP set = union of all class CPs
- **Feature Extraction:** Fixed-length feature vectors for all reference spectra
- **Training:** Train a `k-NN` model using cosine distance
- **Classification:** Predict query identity using trained model

---

### 3. PCA (Principal Component Analysis) Classifier
**Script:** `PCA_Classification.py`  
**Approach:** Global shape-based classification in PCA space

**Concept:**  
A benchmark method that uses global spectral shape via PCA. It reduces the dimensionality of the spe

File: ps-ppo-6jan25-0,0000-map2_Y00_X05.txt
204.377	374
211.048	328
217.712	302
224.369	462
231.019	892
237.661	912
244.297	626
250.924	408
257.546	262
264.16	198
270.766	178
277.365	174
283.958	232
290.543	352
297.121	430
303.693	328
310.256	260
316.813	224
323.362	218
329.905	236
336.441	266
342.969	200
349.491	192
356.006	216
362.513	196
369.014	194
375.508	186
381.994	156
388.473	124
394.947	134
401.412	126
407.871	156
414.323	198
420.768	164
427.206	120
433.637	88
440.062	92
446.479	78
452.89	72
459.293	84
465.691	94
472.081	150
478.463	210
484.84	282
491.21	174
497.573	106
503.929	94
510.279	164
516.621	174
522.957	156
529.287	218
535.609	404
541.925	390
548.234	224
554.536	204
560.832	390
567.12	1352
573.403	1870
579.679	482
585.948	324
592.211	252
598.466	190
604.715	118
610.958	90
617.194	94
623.424	108
629.647	130
635.864	144
642.074	118
648.276	98
654.473	84
660.664	72
666.847	70
673.025	62
679.195	64
685.36	70
691.517	64
697.669	62
703.814	62
709.953	76
716.085	98
722.21	74
728.33	76
734.443	76
740.549	100
746.65	144
752.743	118
758.831	84
764.912	70
770.986	70
777.055	68
783.117	78
789.173	70
795.222	70
801.265	66
807.302	78
813.333	72
819.357	84
825.376	138
831.387	448
837.392	248
843.392	104
849.386	92
855.372	88
861.353	84
867.328	62
873.296	68
879.258	62
885.214	58
891.164	60
897.108	64
903.046	58
908.977	58
914.903	56
920.822	56
926.735	60
932.643	62
938.543	80
944.439	86
950.328	138
956.21	272
962.088	350
967.958	220
973.824	128
979.682	86
985.534	76
991.382	72
997.222	64
1003.06	62
1008.89	60
1014.71	72
1020.53	78
1026.34	80
1032.14	96
1037.94	94
1043.73	88
1049.52	76
1055.3	68
1061.08	68
1066.85	60
1072.61	60
1078.37	70
1084.12	72
1089.87	72
1095.61	68
1101.34	82
1107.07	148
1112.8	340
1118.51	156
1124.22	110
1129.93	84
1135.63	86
1141.32	86
1147.01	74
1152.69	72
1158.37	80
1164.04	92
1169.71	84
1175.37	92
1181.02	128
1186.67	232
1192.31	172
1197.95	152
1203.58	164
1209.2	132
1214.82	102
1220.44	74
1226.05	106
1231.65	124
1237.25	100
1242.84	86
1248.42	82
1254	96
1259.58	88
1265.15	90
1270.71	96
1276.27	114
1281.82	122
1287.37	154
1292.91	180
1298.45	334
1303.98	742
1309.5	484
1315.02	258
1320.53	190
1326.04	174
1331.54	180
1337.04	142
1342.53	158
1348.02	172
1353.5	168
1358.98	152
1364.45	152
1369.91	178
1375.37	332
1380.82	422
1386.27	274
1391.71	166
1397.15	140
1402.58	138
1408.01	136
1413.43	144
1418.85	156
1424.26	176
1429.66	178
1435.06	208
1440.46	210
1445.85	188
1451.23	170
1456.61	160
1461.98	156
1467.35	156
1472.71	138
1478.07	154
1483.42	132
1488.77	126
1494.11	124
1499.45	124
1504.78	106
1510.11	122
1515.43	118
1520.74	110
1526.05	116
1531.36	112
1536.66	98
1541.95	116
1547.24	110
1552.52	106
1557.8	112
1563.08	120
1568.35	110
1573.61	120
1578.87	132
1584.12	172
1589.37	232
1594.61	342
1599.85	428
1605.08	442
1610.31	344
1615.53	252
1620.75	174
1625.96	142
1631.17	100
1636.37	94
1641.57	92
1646.76	94
1651.95	80
1657.13	86
1662.31	84
1667.48	72
1672.65	80
1677.81	76
1682.97	76
1688.12	82
1693.27	88
1698.41	76
1702.26	82

File: ps-ppo-6jan25-0,0000-map2_Y00_X06.txt
204.377	378
211.048	362
217.712	344
224.369	496
231.019	906
237.661	946
244.297	646
250.924	404
257.546	274
264.16	206
270.766	190
277.365	188
283.958	224
290.543	388
297.121	440
303.693	346
310.256	258
316.813	246
323.362	242
329.905	262
336.441	268
342.969	224
349.491	216
356.006	236
362.513	202
369.014	216
375.508	190
381.994	164
388.473	136
394.947	130
401.412	124
407.871	150
414.323	224
420.768	182
427.206	130
433.637	104
440.062	88
446.479	92
452.89	80
459.293	80
465.691	118
472.081	150
478.463	224
484.84	298
491.21	174
497.573	114
503.929	96
510.279	168
516.621	186
522.957	160
529.287	230
535.609	414
541.925	444
548.234	232
554.536	204
560.832	398
567.12	1390
573.403	1998
579.679	524
585.948	356
592.211	270
598.466	220
604.715	122
610.958	94
617.194	104
623.424	110
629.647	142
635.864	154
642.074	134
648.276	110
654.473	88
660.664	78
666.847	72
673.025	72
679.195	64
685.36	64
691.517	62
697.669	66
703.814	66
709.953	90
716.085	100
722.21	80
728.33	82
734.443	84
740.549	90
746.65	150
752.743	122
758.831	92
764.912	74
770.986	70
777.055	84
783.117	82
789.173	74
795.222	74
801.265	72
807.302	72
813.333	80
819.357	88
825.376	130
831.387	484
837.392	244
843.392	112
849.386	112
855.372	90
861.353	84
867.328	72
873.296	74
879.258	62
885.214	62
891.164	60
897.108	64
903.046	60
908.977	68
914.903	56
920.822	56
926.735	68
932.643	66
938.543	78
944.439	94
950.328	154
956.21	312
962.088	374
967.958	232
973.824	140
979.682	94
985.534	68
991.382	76
997.222	68
1003.06	66
1008.89	70
1014.71	64
1020.53	86
1026.34	88
1032.14	98
1037.94	90
1043.73	86
1049.52	74
1055.3	64
1061.08	72
1066.85	62
1072.61	66
1078.37	64
1084.12	66
1089.87	62
1095.61	70
1101.34	88
1107.07	152
1112.8	366
1118.51	158
1124.22	96
1129.93	88
1135.63	94
1141.32	90
1147.01	78
1152.69	78
1158.37	96
1164.04	100
1169.71	74
1175.37	106
1181.02	142
1186.67	254
1192.31	162
1197.95	162
1203.58	172
1209.2	134
1214.82	98
1220.44	86
1226.05	122
1231.65	138
1237.25	100
1242.84	80
1248.42	90
1254	88
1259.58	92
1265.15	94
1270.71	98
1276.27	106
1281.82	128
1287.37	158
1292.91	196
1298.45	352
1303.98	760
1309.5	516
1315.02	260
1320.53	196
1326.04	184
1331.54	174
1337.04	146
1342.53	150
1348.02	174
1353.5	166
1358.98	154
1364.45	146
1369.91	176
1375.37	348
1380.82	408
1386.27	300
1391.71	156
1397.15	140
1402.58	132
1408.01	150
1413.43	150
1418.85	156
1424.26	170
1429.66	190
1435.06	190
1440.46	222
1445.85	200
1451.23	168
1456.61	178
1461.98	152
1467.35	160
1472.71	138
1478.07	146
1483.42	144
1488.77	118
1494.11	120
1499.45	124
1504.78	118
1510.11	116
1515.43	116
1520.74	118
1526.05	116
1531.36	112
1536.66	114
1541.95	110
1547.24	116
1552.52	118
1557.8	102
1563.08	108
1568.35	116
1573.61	120
1578.87	152
1584.12	172
1589.37	240
1594.61	346
1599.85	450
1605.08	476
1610.31	350
1615.53	256
1620.75	168
1625.96	140
1631.17	112
1636.37	94
1641.57	96
1646.76	92
1651.95	84
1657.13	88
1662.31	78
1667.48	86
1672.65	76
1677.81	84
1682.97	80
1688.12	76
1693.27	88
1698.41	88
1702.26	74

File: ps-ppo-6jan25-0,0000-map2_Y00_X08.txt
204.377	380
211.048	322
217.712	318
224.369	448
231.019	878
237.661	916
244.297	598
250.924	372
257.546	264
264.16	194
270.766	172
277.365	168
283.958	230
290.543	366
297.121	404
303.693	308
310.256	250
316.813	214
323.362	214
329.905	260
336.441	246
342.969	198
349.491	208
356.006	214
362.513	194
369.014	190
375.508	190
381.994	160
388.473	134
394.947	120
401.412	124
407.871	148
414.323	210
420.768	154
427.206	122
433.637	84
440.062	94
446.479	90
452.89	74
459.293	72
465.691	94
472.081	144
478.463	228
484.84	276
491.21	178
497.573	110
503.929	98
510.279	144
516.621	168
522.957	150
529.287	224
535.609	386
541.925	390
548.234	212
554.536	208
560.832	362
567.12	1360
573.403	1882
579.679	494
585.948	310
592.211	260
598.466	208
604.715	114
610.958	84
617.194	88
623.424	112
629.647	138
635.864	156
642.074	114
648.276	100
654.473	82
660.664	68
666.847	68
673.025	66
679.195	60
685.36	70
691.517	68
697.669	60
703.814	58
709.953	80
716.085	100
722.21	80
728.33	76
734.443	84
740.549	94
746.65	142
752.743	120
758.831	88
764.912	70
770.986	68
777.055	64
783.117	72
789.173	72
795.222	60
801.265	66
807.302	76
813.333	76
819.357	88
825.376	122
831.387	442
837.392	236
843.392	114
849.386	88
855.372	92
861.353	76
867.328	70
873.296	66
879.258	64
885.214	56
891.164	50
897.108	64
903.046	62
908.977	50
914.903	58
920.822	58
926.735	64
932.643	68
938.543	72
944.439	92
950.328	142
956.21	282
962.088	336
967.958	212
973.824	126
979.682	72
985.534	70
991.382	70
997.222	62
1003.06	62
1008.89	66
1014.71	72
1020.53	80
1026.34	80
1032.14	100
1037.94	98
1043.73	86
1049.52	74
1055.3	70
1061.08	66
1066.85	62
1072.61	62
1078.37	66
1084.12	60
1089.87	68
1095.61	74
1101.34	72
1107.07	138
1112.8	352
1118.51	156
1124.22	110
1129.93	88
1135.63	88
1141.32	96
1147.01	84
1152.69	76
1158.37	88
1164.04	94
1169.71	88
1175.37	90
1181.02	134
1186.67	232
1192.31	160
1197.95	142
1203.58	172
1209.2	136
1214.82	88
1220.44	94
1226.05	110
1231.65	130
1237.25	86
1242.84	80
1248.42	80
1254	90
1259.58	80
1265.15	104
1270.71	96
1276.27	100
1281.82	128
1287.37	142
1292.91	184
1298.45	336
1303.98	722
1309.5	486
1315.02	254
1320.53	194
1326.04	182
1331.54	168
1337.04	142
1342.53	146
1348.02	156
1353.5	160
1358.98	146
1364.45	140
1369.91	174
1375.37	318
1380.82	406
1386.27	272
1391.71	152
1397.15	128
1402.58	132
1408.01	132
1413.43	142
1418.85	144
1424.26	162
1429.66	176
1435.06	190
1440.46	206
1445.85	182
1451.23	168
1456.61	150
1461.98	154
1467.35	140
1472.71	148
1478.07	150
1483.42	148
1488.77	122
1494.11	112
1499.45	112
1504.78	122
1510.11	118
1515.43	116
1520.74	98
1526.05	110
1531.36	100
1536.66	106
1541.95	104
1547.24	108
1552.52	96
1557.8	102
1563.08	114
1568.35	110
1573.61	124
1578.87	142
1584.12	164
1589.37	228
1594.61	324
1599.85	414
1605.08	426
1610.31	342
1615.53	258
1620.75	166
1625.96	122
1631.17	112
1636.37	90
1641.57	96
1646.76	86
1651.95	76
1657.13	88
1662.31	88
1667.48	76
1672.65	84
1677.81	80
1682.97	80
1688.12	74
1693.27	76
1698.41	86
1702.26	78

File: ps-ppo-6jan25-0,0000-map2_Y00_X09.txt
204.377	386
211.048	332
217.712	312
224.369	460
231.019	854
237.661	836
244.297	602
250.924	378
257.546	258
264.16	196
270.766	174
277.365	174
283.958	220
290.543	354
297.121	404
303.693	306
310.256	254
316.813	212
323.362	216
329.905	240
336.441	228
342.969	198
349.491	210
356.006	194
362.513	178
369.014	202
375.508	170
381.994	146
388.473	136
394.947	124
401.412	134
407.871	144
414.323	216
420.768	158
427.206	114
433.637	100
440.062	88
446.479	78
452.89	80
459.293	86
465.691	108
472.081	140
478.463	216
484.84	274
491.21	174
497.573	92
503.929	104
510.279	158
516.621	164
522.957	156
529.287	222
535.609	388
541.925	388
548.234	206
554.536	216
560.832	378
567.12	1392
573.403	1826
579.679	458
585.948	324
592.211	248
598.466	208
604.715	116
610.958	100
617.194	88
623.424	108
629.647	124
635.864	148
642.074	128
648.276	110
654.473	86
660.664	70
666.847	68
673.025	58
679.195	58
685.36	64
691.517	60
697.669	64
703.814	64
709.953	74
716.085	94
722.21	82
728.33	74
734.443	72
740.549	88
746.65	134
752.743	110
758.831	84
764.912	64
770.986	68
777.055	64
783.117	74
789.173	64
795.222	70
801.265	70
807.302	80
813.333	80
819.357	76
825.376	128
831.387	444
837.392	238
843.392	104
849.386	94
855.372	88
861.353	84
867.328	66
873.296	64
879.258	66
885.214	62
891.164	58
897.108	54
903.046	56
908.977	54
914.903	60
920.822	60
926.735	68
932.643	66
938.543	76
944.439	84
950.328	150
956.21	274
962.088	354
967.958	204
973.824	132
979.682	82
985.534	76
991.382	72
997.222	60
1003.06	60
1008.89	68
1014.71	68
1020.53	80
1026.34	82
1032.14	106
1037.94	84
1043.73	78
1049.52	70
1055.3	60
1061.08	66
1066.85	64
1072.61	56
1078.37	64
1084.12	58
1089.87	66
1095.61	66
1101.34	72
1107.07	134
1112.8	342
1118.51	168
1124.22	88
1129.93	84
1135.63	78
1141.32	86
1147.01	78
1152.69	74
1158.37	82
1164.04	94
1169.71	80
1175.37	90
1181.02	146
1186.67	226
1192.31	156
1197.95	150
1203.58	162
1209.2	120
1214.82	88
1220.44	88
1226.05	104
1231.65	122
1237.25	96
1242.84	98
1248.42	84
1254	78
1259.58	90
1265.15	92
1270.71	100
1276.27	114
1281.82	120
1287.37	142
1292.91	180
1298.45	328
1303.98	728
1309.5	510
1315.02	256
1320.53	188
1326.04	168
1331.54	158
1337.04	138
1342.53	134
1348.02	150
1353.5	156
1358.98	148
1364.45	146
1369.91	158
1375.37	324
1380.82	384
1386.27	264
1391.71	164
1397.15	124
1402.58	116
1408.01	128
1413.43	144
1418.85	166
1424.26	178
1429.66	180
1435.06	194
1440.46	196
1445.85	188
1451.23	162
1456.61	154
1461.98	154
1467.35	150
1472.71	144
1478.07	146
1483.42	124
1488.77	108
1494.11	116
1499.45	114
1504.78	118
1510.11	108
1515.43	110
1520.74	102
1526.05	98
1531.36	106
1536.66	108
1541.95	96
1547.24	106
1552.52	112
1557.8	112
1563.08	112
1568.35	116
1573.61	124
1578.87	144
1584.12	168
1589.37	234
1594.61	310
1599.85	420
1605.08	438
1610.31	322
1615.53	238
1620.75	164
1625.96	126
1631.17	96
1636.37	86
1641.57	80
1646.76	88
1651.95	76
1657.13	84
1662.31	80
1667.48	72
1672.65	78
1677.81	78
1682.97	78
1688.12	80
1693.27	92
1698.41	76
1702.26	92

File: ps-ppo-6jan25-0,0000-map2_Y00_X10.txt
204.377	370
211.048	316
217.712	314
224.369	460
231.019	838
237.661	854
244.297	580
250.924	392
257.546	240
264.16	200
270.766	184
277.365	180
283.958	216
290.543	340
297.121	426
303.693	314
310.256	248
316.813	206
323.362	232
329.905	234
336.441	236
342.969	206
349.491	204
356.006	190
362.513	196
369.014	190
375.508	166
381.994	132
388.473	130
394.947	120
401.412	114
407.871	152
414.323	206
420.768	154
427.206	118
433.637	104
440.062	86
446.479	84
452.89	84
459.293	82
465.691	108
472.081	148
478.463	210
484.84	278
491.21	160
497.573	112
503.929	102
510.279	148
516.621	166
522.957	138
529.287	214
535.609	384
541.925	374
548.234	212
554.536	212
560.832	370
567.12	1316
573.403	1826
579.679	476
585.948	312
592.211	254
598.466	192
604.715	120
610.958	94
617.194	96
623.424	116
629.647	132
635.864	158
642.074	122
648.276	98
654.473	74
660.664	72
666.847	64
673.025	60
679.195	60
685.36	66
691.517	68
697.669	60
703.814	62
709.953	80
716.085	98
722.21	78
728.33	74
734.443	76
740.549	86
746.65	120
752.743	106
758.831	92
764.912	60
770.986	70
777.055	82
783.117	80
789.173	70
795.222	66
801.265	74
807.302	74
813.333	68
819.357	86
825.376	114
831.387	458
837.392	234
843.392	102
849.386	96
855.372	88
861.353	76
867.328	66
873.296	66
879.258	70
885.214	58
891.164	60
897.108	60
903.046	66
908.977	60
914.903	62
920.822	58
926.735	58
932.643	70
938.543	74
944.439	84
950.328	140
956.21	274
962.088	320
967.958	202
973.824	132
979.682	86
985.534	70
991.382	68
997.222	68
1003.06	60
1008.89	64
1014.71	72
1020.53	88
1026.34	78
1032.14	94
1037.94	92
1043.73	82
1049.52	72
1055.3	66
1061.08	76
1066.85	60
1072.61	60
1078.37	52
1084.12	70
1089.87	60
1095.61	78
1101.34	78
1107.07	142
1112.8	330
1118.51	150
1124.22	108
1129.93	82
1135.63	78
1141.32	90
1147.01	70
1152.69	70
1158.37	72
1164.04	92
1169.71	96
1175.37	94
1181.02	142
1186.67	230
1192.31	164
1197.95	156
1203.58	154
1209.2	118
1214.82	92
1220.44	76
1226.05	106
1231.65	130
1237.25	88
1242.84	94
1248.42	86
1254	78
1259.58	92
1265.15	96
1270.71	96
1276.27	96
1281.82	126
1287.37	136
1292.91	166
1298.45	332
1303.98	670
1309.5	482
1315.02	250
1320.53	178
1326.04	176
1331.54	160
1337.04	142
1342.53	148
1348.02	156
1353.5	158
1358.98	132
1364.45	138
1369.91	162
1375.37	304
1380.82	376
1386.27	258
1391.71	162
1397.15	128
1402.58	126
1408.01	120
1413.43	146
1418.85	152
1424.26	178
1429.66	188
1435.06	180
1440.46	200
1445.85	188
1451.23	156
1456.61	166
1461.98	146
1467.35	146
1472.71	140
1478.07	136
1483.42	122
1488.77	108
1494.11	120
1499.45	108
1504.78	110
1510.11	112
1515.43	110
1520.74	100
1526.05	102
1531.36	102
1536.66	104
1541.95	100
1547.24	102
1552.52	102
1557.8	102
1563.08	108
1568.35	118
1573.61	114
1578.87	134
1584.12	162
1589.37	228
1594.61	324
1599.85	392
1605.08	416
1610.31	296
1615.53	228
1620.75	168
1625.96	118
1631.17	106
1636.37	92
1641.57	94
1646.76	96
1651.95	84
1657.13	84
1662.31	76
1667.48	80
1672.65	82
1677.81	68
1682.97	72
1688.12	86
1693.27	76
1698.41	80
1702.26	76

File: ps-ppo-6jan25-0,0000-map2_Y01_X01.txt
204.377	398
211.048	348
217.712	364
224.369	496
231.019	924
237.661	958
244.297	668
250.924	410
257.546	274
264.16	214
270.766	182
277.365	196
283.958	234
290.543	390
297.121	444
303.693	340
310.256	266
316.813	256
323.362	240
329.905	272
336.441	268
342.969	236
349.491	212
356.006	238
362.513	200
369.014	192
375.508	200
381.994	158
388.473	146
394.947	126
401.412	136
407.871	154
414.323	226
420.768	164
427.206	114
433.637	106
440.062	80
446.479	76
452.89	76
459.293	80
465.691	96
472.081	152
478.463	230
484.84	292
491.21	180
497.573	118
503.929	102
510.279	164
516.621	180
522.957	170
529.287	224
535.609	426
541.925	432
548.234	234
554.536	212
560.832	428
567.12	1494
573.403	2094
579.679	546
585.948	352
592.211	288
598.466	218
604.715	128
610.958	90
617.194	96
623.424	106
629.647	136
635.864	154
642.074	136
648.276	108
654.473	92
660.664	74
666.847	70
673.025	66
679.195	64
685.36	58
691.517	56
697.669	66
703.814	66
709.953	94
716.085	102
722.21	80
728.33	76
734.443	88
740.549	90
746.65	144
752.743	122
758.831	90
764.912	76
770.986	76
777.055	80
783.117	88
789.173	74
795.222	66
801.265	76
807.302	84
813.333	70
819.357	88
825.376	126
831.387	494
837.392	264
843.392	114
849.386	100
855.372	88
861.353	82
867.328	78
873.296	64
879.258	64
885.214	56
891.164	58
897.108	54
903.046	58
908.977	60
914.903	64
920.822	62
926.735	62
932.643	64
938.543	76
944.439	104
950.328	140
956.21	314
962.088	392
967.958	238
973.824	128
979.682	90
985.534	82
991.382	80
997.222	72
1003.06	56
1008.89	68
1014.71	70
1020.53	74
1026.34	82
1032.14	100
1037.94	86
1043.73	92
1049.52	68
1055.3	72
1061.08	62
1066.85	70
1072.61	60
1078.37	68
1084.12	70
1089.87	68
1095.61	72
1101.34	80
1107.07	150
1112.8	362
1118.51	170
1124.22	106
1129.93	84
1135.63	86
1141.32	90
1147.01	80
1152.69	74
1158.37	88
1164.04	100
1169.71	92
1175.37	102
1181.02	150
1186.67	240
1192.31	166
1197.95	154
1203.58	174
1209.2	140
1214.82	100
1220.44	88
1226.05	118
1231.65	140
1237.25	96
1242.84	88
1248.42	92
1254	88
1259.58	88
1265.15	92
1270.71	98
1276.27	114
1281.82	130
1287.37	164
1292.91	184
1298.45	356
1303.98	778
1309.5	532
1315.02	280
1320.53	202
1326.04	186
1331.54	164
1337.04	144
1342.53	158
1348.02	162
1353.5	160
1358.98	146
1364.45	156
1369.91	184
1375.37	360
1380.82	446
1386.27	284
1391.71	176
1397.15	158
1402.58	144
1408.01	134
1413.43	134
1418.85	160
1424.26	186
1429.66	190
1435.06	212
1440.46	222
1445.85	200
1451.23	180
1456.61	164
1461.98	164
1467.35	158
1472.71	150
1478.07	138
1483.42	130
1488.77	136
1494.11	122
1499.45	122
1504.78	122
1510.11	112
1515.43	106
1520.74	114
1526.05	108
1531.36	98
1536.66	106
1541.95	116
1547.24	112
1552.52	106
1557.8	108
1563.08	108
1568.35	122
1573.61	140
1578.87	152
1584.12	184
1589.37	250
1594.61	334
1599.85	482
1605.08	478
1610.31	374
1615.53	254
1620.75	178
1625.96	126
1631.17	114
1636.37	100
1641.57	90
1646.76	104
1651.95	84
1657.13	86
1662.31	86
1667.48	78
1672.65	74
1677.81	86
1682.97	82
1688.12	88
1693.27	84
1698.41	80
1702.26	82

File: ps-ppo-6jan25-0,0000-map2_Y01_X02.txt
204.377	390
211.048	350
217.712	350
224.369	496
231.019	940
237.661	974
244.297	650
250.924	414
257.546	282
264.16	200
270.766	188
277.365	188
283.958	244
290.543	380
297.121	464
303.693	344
310.256	272
316.813	226
323.362	230
329.905	270
336.441	280
342.969	218
349.491	224
356.006	232
362.513	196
369.014	194
375.508	194
381.994	156
388.473	146
394.947	128
401.412	142
407.871	154
414.323	236
420.768	164
427.206	118
433.637	102
440.062	82
446.479	82
452.89	78
459.293	82
465.691	98
472.081	144
478.463	216
484.84	306
491.21	174
497.573	120
503.929	102
510.279	152
516.621	164
522.957	166
529.287	232
535.609	420
541.925	414
548.234	230
554.536	228
560.832	412
567.12	1496
573.403	2068
579.679	506
585.948	338
592.211	262
598.466	218
604.715	126
610.958	104
617.194	92
623.424	118
629.647	148
635.864	150
642.074	130
648.276	108
654.473	92
660.664	80
666.847	60
673.025	66
679.195	64
685.36	60
691.517	56
697.669	62
703.814	66
709.953	78
716.085	104
722.21	80
728.33	74
734.443	90
740.549	96
746.65	150
752.743	126
758.831	104
764.912	74
770.986	72
777.055	78
783.117	78
789.173	66
795.222	64
801.265	64
807.302	74
813.333	74
819.357	90
825.376	154
831.387	494
837.392	270
843.392	104
849.386	92
855.372	98
861.353	84
867.328	70
873.296	56
879.258	60
885.214	66
891.164	56
897.108	60
903.046	58
908.977	54
914.903	52
920.822	62
926.735	60
932.643	66
938.543	76
944.439	96
950.328	150
956.21	300
962.088	392
967.958	242
973.824	136
979.682	80
985.534	74
991.382	76
997.222	60
1003.06	58
1008.89	68
1014.71	72
1020.53	82
1026.34	90
1032.14	102
1037.94	98
1043.73	80
1049.52	68
1055.3	68
1061.08	54
1066.85	64
1072.61	58
1078.37	66
1084.12	68
1089.87	74
1095.61	70
1101.34	82
1107.07	142
1112.8	378
1118.51	172
1124.22	106
1129.93	84
1135.63	88
1141.32	90
1147.01	74
1152.69	78
1158.37	90
1164.04	96
1169.71	84
1175.37	98
1181.02	144
1186.67	234
1192.31	166
1197.95	160
1203.58	190
1209.2	132
1214.82	98
1220.44	96
1226.05	116
1231.65	120
1237.25	98
1242.84	84
1248.42	88
1254	90
1259.58	94
1265.15	96
1270.71	100
1276.27	114
1281.82	130
1287.37	170
1292.91	198
1298.45	358
1303.98	802
1309.5	554
1315.02	268
1320.53	190
1326.04	192
1331.54	172
1337.04	152
1342.53	164
1348.02	178
1353.5	184
1358.98	168
1364.45	140
1369.91	174
1375.37	346
1380.82	446
1386.27	288
1391.71	170
1397.15	146
1402.58	150
1408.01	142
1413.43	138
1418.85	164
1424.26	186
1429.66	188
1435.06	210
1440.46	238
1445.85	206
1451.23	192
1456.61	172
1461.98	172
1467.35	156
1472.71	158
1478.07	146
1483.42	132
1488.77	138
1494.11	118
1499.45	120
1504.78	118
1510.11	106
1515.43	120
1520.74	116
1526.05	106
1531.36	120
1536.66	108
1541.95	116
1547.24	118
1552.52	112
1557.8	112
1563.08	112
1568.35	134
1573.61	126
1578.87	146
1584.12	188
1589.37	258
1594.61	348
1599.85	478
1605.08	476
1610.31	360
1615.53	254
1620.75	182
1625.96	144
1631.17	122
1636.37	94
1641.57	92
1646.76	82
1651.95	96
1657.13	86
1662.31	86
1667.48	80
1672.65	80
1677.81	78
1682.97	80
1688.12	78
1693.27	82
1698.41	86
1702.26	80