Folder: NRC_SU25_Spectral_Classification/Jesse_Dataset_v2/Pure Raman/Polypropylene oxide/785nm (part 9)

File: ps-ppo-6jan25-0,0000-map2_Y10_X06.txt
204.377	368
211.048	316
217.712	308
224.369	446
231.019	840
237.661	848
244.297	598
250.924	372
257.546	254
264.16	182
270.766	170
277.365	170
283.958	224
290.543	352
297.121	408
303.693	300
310.256	240
316.813	206
323.362	198
329.905	244
336.441	242
342.969	206
349.491	196
356.006	186
362.513	190
369.014	170
375.508	178
381.994	138
388.473	126
394.947	116
401.412	110
407.871	146
414.323	200
420.768	154
427.206	116
433.637	88
440.062	84
446.479	78
452.89	76
459.293	80
465.691	98
472.081	140
478.463	206
484.84	264
491.21	162
497.573	108
503.929	94
510.279	168
516.621	164
522.957	142
529.287	208
535.609	384
541.925	386
548.234	208
554.536	192
560.832	370
567.12	1306
573.403	1820
579.679	436
585.948	316
592.211	260
598.466	190
604.715	104
610.958	92
617.194	86
623.424	98
629.647	124
635.864	148
642.074	124
648.276	98
654.473	82
660.664	72
666.847	66
673.025	56
679.195	54
685.36	62
691.517	60
697.669	52
703.814	66
709.953	80
716.085	94
722.21	72
728.33	68
734.443	84
740.549	86
746.65	142
752.743	116
758.831	80
764.912	70
770.986	66
777.055	82
783.117	70
789.173	62
795.222	58
801.265	58
807.302	72
813.333	66
819.357	78
825.376	126
831.387	440
837.392	242
843.392	98
849.386	88
855.372	82
861.353	74
867.328	68
873.296	60
879.258	56
885.214	52
891.164	56
897.108	58
903.046	56
908.977	62
914.903	54
920.822	64
926.735	62
932.643	56
938.543	74
944.439	76
950.328	146
956.21	276
962.088	334
967.958	208
973.824	128
979.682	86
985.534	70
991.382	68
997.222	62
1003.06	60
1008.89	64
1014.71	58
1020.53	72
1026.34	76
1032.14	98
1037.94	82
1043.73	80
1049.52	66
1055.3	68
1061.08	60
1066.85	58
1072.61	66
1078.37	58
1084.12	66
1089.87	66
1095.61	70
1101.34	74
1107.07	138
1112.8	330
1118.51	138
1124.22	88
1129.93	80
1135.63	80
1141.32	82
1147.01	74
1152.69	72
1158.37	76
1164.04	84
1169.71	82
1175.37	102
1181.02	138
1186.67	236
1192.31	170
1197.95	148
1203.58	160
1209.2	120
1214.82	92
1220.44	90
1226.05	102
1231.65	126
1237.25	96
1242.84	78
1248.42	78
1254	76
1259.58	86
1265.15	86
1270.71	94
1276.27	94
1281.82	116
1287.37	140
1292.91	182
1298.45	304
1303.98	686
1309.5	470
1315.02	244
1320.53	188
1326.04	172
1331.54	164
1337.04	140
1342.53	146
1348.02	150
1353.5	154
1358.98	140
1364.45	138
1369.91	164
1375.37	312
1380.82	370
1386.27	256
1391.71	150
1397.15	118
1402.58	130
1408.01	132
1413.43	120
1418.85	144
1424.26	164
1429.66	166
1435.06	182
1440.46	194
1445.85	174
1451.23	156
1456.61	148
1461.98	146
1467.35	134
1472.71	142
1478.07	134
1483.42	130
1488.77	120
1494.11	106
1499.45	106
1504.78	100
1510.11	112
1515.43	118
1520.74	104
1526.05	98
1531.36	108
1536.66	92
1541.95	100
1547.24	104
1552.52	96
1557.8	100
1563.08	108
1568.35	114
1573.61	120
1578.87	138
1584.12	162
1589.37	224
1594.61	318
1599.85	422
1605.08	434
1610.31	326
1615.53	224
1620.75	166
1625.96	114
1631.17	108
1636.37	90
1641.57	76
1646.76	72
1651.95	78
1657.13	78
1662.31	76
1667.48	76
1672.65	66
1677.81	72
1682.97	68
1688.12	72
1693.27	76
1698.41	70
1702.26	74

File: ps-ppo-6jan25-0,0000-map2_Y10_X08.txt
204.377	342
211.048	312
217.712	330
224.369	410
231.019	826
237.661	838
244.297	544
250.924	364
257.546	250
264.16	182
270.766	172
277.365	176
283.958	216
290.543	346
297.121	414
303.693	276
310.256	236
316.813	218
323.362	220
329.905	240
336.441	224
342.969	192
349.491	198
356.006	184
362.513	178
369.014	190
375.508	172
381.994	124
388.473	126
394.947	104
401.412	126
407.871	146
414.323	196
420.768	150
427.206	118
433.637	90
440.062	84
446.479	80
452.89	74
459.293	86
465.691	94
472.081	144
478.463	206
484.84	270
491.21	162
497.573	108
503.929	102
510.279	152
516.621	148
522.957	146
529.287	212
535.609	370
541.925	368
548.234	200
554.536	200
560.832	380
567.12	1364
573.403	1740
579.679	442
585.948	302
592.211	264
598.466	192
604.715	106
610.958	94
617.194	82
623.424	104
629.647	120
635.864	140
642.074	112
648.276	88
654.473	84
660.664	70
666.847	60
673.025	68
679.195	54
685.36	58
691.517	56
697.669	54
703.814	62
709.953	72
716.085	80
722.21	76
728.33	68
734.443	80
740.549	90
746.65	130
752.743	116
758.831	90
764.912	72
770.986	64
777.055	70
783.117	60
789.173	74
795.222	54
801.265	66
807.302	74
813.333	74
819.357	82
825.376	126
831.387	452
837.392	218
843.392	100
849.386	86
855.372	90
861.353	72
867.328	66
873.296	66
879.258	60
885.214	54
891.164	56
897.108	50
903.046	54
908.977	58
914.903	50
920.822	50
926.735	64
932.643	66
938.543	68
944.439	88
950.328	152
956.21	268
962.088	340
967.958	220
973.824	122
979.682	78
985.534	76
991.382	70
997.222	60
1003.06	62
1008.89	66
1014.71	74
1020.53	78
1026.34	78
1032.14	100
1037.94	96
1043.73	72
1049.52	80
1055.3	62
1061.08	70
1066.85	62
1072.61	66
1078.37	60
1084.12	64
1089.87	66
1095.61	64
1101.34	84
1107.07	128
1112.8	330
1118.51	140
1124.22	102
1129.93	88
1135.63	80
1141.32	78
1147.01	74
1152.69	68
1158.37	84
1164.04	92
1169.71	88
1175.37	100
1181.02	130
1186.67	220
1192.31	148
1197.95	152
1203.58	164
1209.2	112
1214.82	78
1220.44	80
1226.05	110
1231.65	124
1237.25	84
1242.84	80
1248.42	80
1254	80
1259.58	88
1265.15	86
1270.71	92
1276.27	104
1281.82	122
1287.37	136
1292.91	174
1298.45	328
1303.98	720
1309.5	450
1315.02	260
1320.53	188
1326.04	168
1331.54	156
1337.04	138
1342.53	132
1348.02	162
1353.5	156
1358.98	140
1364.45	138
1369.91	158
1375.37	328
1380.82	382
1386.27	228
1391.71	140
1397.15	126
1402.58	130
1408.01	124
1413.43	132
1418.85	154
1424.26	166
1429.66	176
1435.06	190
1440.46	198
1445.85	172
1451.23	166
1456.61	152
1461.98	152
1467.35	134
1472.71	134
1478.07	136
1483.42	128
1488.77	118
1494.11	120
1499.45	94
1504.78	102
1510.11	96
1515.43	106
1520.74	104
1526.05	98
1531.36	96
1536.66	98
1541.95	102
1547.24	94
1552.52	102
1557.8	112
1563.08	98
1568.35	104
1573.61	126
1578.87	134
1584.12	158
1589.37	220
1594.61	314
1599.85	432
1605.08	426
1610.31	334
1615.53	234
1620.75	160
1625.96	120
1631.17	90
1636.37	86
1641.57	86
1646.76	88
1651.95	82
1657.13	76
1662.31	72
1667.48	76
1672.65	78
1677.81	72
1682.97	72
1688.12	76
1693.27	72
1698.41	78
1702.26	74