Folder: NRC_SU25_Spectral_Classification/Jesse_Dataset_v2/Pure Raman/Polypropylene oxide/785nm (part 4)

File: ps-ppo-6jan25-0,0000-map2_Y04_X06.txt
204.377	388
211.048	338
217.712	320
224.369	488
231.019	898
237.661	894
244.297	594
250.924	402
257.546	280
264.16	200
270.766	168
277.365	182
283.958	224
290.543	366
297.121	440
303.693	322
310.256	240
316.813	238
323.362	230
329.905	250
336.441	254
342.969	214
349.491	192
356.006	220
362.513	180
369.014	182
375.508	188
381.994	144
388.473	136
394.947	108
401.412	116
407.871	142
414.323	182
420.768	160
427.206	116
433.637	98
440.062	80
446.479	80
452.89	76
459.293	80
465.691	96
472.081	148
478.463	230
484.84	274
491.21	182
497.573	110
503.929	98
510.279	152
516.621	158
522.957	156
529.287	224
535.609	398
541.925	384
548.234	210
554.536	196
560.832	398
567.12	1424
573.403	1932
579.679	474
585.948	322
592.211	256
598.466	200
604.715	120
610.958	94
617.194	84
623.424	106
629.647	134
635.864	138
642.074	122
648.276	102
654.473	80
660.664	72
666.847	66
673.025	64
679.195	62
685.36	58
691.517	56
697.669	52
703.814	56
709.953	76
716.085	96
722.21	74
728.33	74
734.443	76
740.549	86
746.65	140
752.743	110
758.831	94
764.912	64
770.986	68
777.055	70
783.117	78
789.173	66
795.222	60
801.265	64
807.302	76
813.333	74
819.357	88
825.376	128
831.387	494
837.392	240
843.392	104
849.386	98
855.372	78
861.353	82
867.328	70
873.296	58
879.258	58
885.214	56
891.164	50
897.108	54
903.046	56
908.977	48
914.903	52
920.822	58
926.735	62
932.643	66
938.543	72
944.439	80
950.328	148
956.21	282
962.088	328
967.958	212
973.824	130
979.682	78
985.534	70
991.382	74
997.222	62
1003.06	60
1008.89	64
1014.71	68
1020.53	78
1026.34	82
1032.14	100
1037.94	82
1043.73	72
1049.52	70
1055.3	68
1061.08	60
1066.85	62
1072.61	54
1078.37	66
1084.12	62
1089.87	68
1095.61	64
1101.34	80
1107.07	138
1112.8	352
1118.51	150
1124.22	106
1129.93	76
1135.63	82
1141.32	86
1147.01	72
1152.69	70
1158.37	78
1164.04	86
1169.71	74
1175.37	92
1181.02	136
1186.67	230
1192.31	158
1197.95	136
1203.58	156
1209.2	124
1214.82	92
1220.44	90
1226.05	106
1231.65	128
1237.25	100
1242.84	78
1248.42	82
1254	82
1259.58	90
1265.15	92
1270.71	94
1276.27	104
1281.82	118
1287.37	150
1292.91	194
1298.45	342
1303.98	758
1309.5	512
1315.02	252
1320.53	190
1326.04	172
1331.54	166
1337.04	140
1342.53	156
1348.02	162
1353.5	158
1358.98	138
1364.45	142
1369.91	184
1375.37	326
1380.82	400
1386.27	268
1391.71	156
1397.15	136
1402.58	130
1408.01	142
1413.43	140
1418.85	160
1424.26	178
1429.66	182
1435.06	184
1440.46	208
1445.85	188
1451.23	160
1456.61	152
1461.98	158
1467.35	156
1472.71	146
1478.07	146
1483.42	130
1488.77	124
1494.11	116
1499.45	114
1504.78	118
1510.11	108
1515.43	102
1520.74	106
1526.05	110
1531.36	98
1536.66	102
1541.95	106
1547.24	102
1552.52	98
1557.8	100
1563.08	116
1568.35	116
1573.61	132
1578.87	132
1584.12	172
1589.37	236
1594.61	326
1599.85	472
1605.08	430
1610.31	328
1615.53	248
1620.75	160
1625.96	120
1631.17	110
1636.37	92
1641.57	98
1646.76	88
1651.95	90
1657.13	82
1662.31	80
1667.48	82
1672.65	74
1677.81	72
1682.97	80
1688.12	88
1693.27	82
1698.41	88
1702.26	70

File: ps-ppo-6jan25-0,0000-map2_Y05_X00.txt
204.377	362
211.048	336
217.712	332
224.369	490
231.019	874
237.661	928
244.297	630
250.924	400
257.546	252
264.16	196
270.766	158
277.365	180
283.958	232
290.543	368
297.121	438
303.693	334
310.256	268
316.813	232
323.362	240
329.905	268
336.441	252
342.969	230
349.491	210
356.006	206
362.513	192
369.014	202
375.508	184
381.994	146
388.473	136
394.947	126
401.412	128
407.871	148
414.323	204
420.768	162
427.206	120
433.637	106
440.062	84
446.479	80
452.89	76
459.293	84
465.691	100
472.081	148
478.463	216
484.84	278
491.21	178
497.573	102
503.929	102
510.279	144
516.621	168
522.957	146
529.287	220
535.609	428
541.925	406
548.234	220
554.536	206
560.832	384
567.12	1420
573.403	1966
579.679	500
585.948	324
592.211	250
598.466	196
604.715	112
610.958	90
617.194	96
623.424	108
629.647	130
635.864	156
642.074	124
648.276	104
654.473	92
660.664	78
666.847	72
673.025	64
679.195	60
685.36	62
691.517	56
697.669	60
703.814	66
709.953	80
716.085	108
722.21	72
728.33	78
734.443	84
740.549	94
746.65	138
752.743	108
758.831	98
764.912	68
770.986	70
777.055	72
783.117	84
789.173	70
795.222	66
801.265	68
807.302	82
813.333	74
819.357	76
825.376	132
831.387	456
837.392	244
843.392	112
849.386	94
855.372	84
861.353	84
867.328	74
873.296	58
879.258	64
885.214	58
891.164	62
897.108	54
903.046	58
908.977	64
914.903	50
920.822	50
926.735	56
932.643	66
938.543	72
944.439	98
950.328	142
956.21	300
962.088	372
967.958	228
973.824	144
979.682	86
985.534	74
991.382	76
997.222	64
1003.06	66
1008.89	66
1014.71	62
1020.53	72
1026.34	80
1032.14	90
1037.94	88
1043.73	86
1049.52	70
1055.3	70
1061.08	68
1066.85	60
1072.61	72
1078.37	60
1084.12	56
1089.87	66
1095.61	74
1101.34	80
1107.07	144
1112.8	338
1118.51	150
1124.22	106
1129.93	84
1135.63	78
1141.32	84
1147.01	76
1152.69	74
1158.37	76
1164.04	94
1169.71	84
1175.37	98
1181.02	150
1186.67	250
1192.31	176
1197.95	160
1203.58	170
1209.2	122
1214.82	96
1220.44	96
1226.05	112
1231.65	122
1237.25	90
1242.84	80
1248.42	88
1254	84
1259.58	88
1265.15	94
1270.71	102
1276.27	98
1281.82	132
1287.37	156
1292.91	186
1298.45	346
1303.98	744
1309.5	506
1315.02	258
1320.53	204
1326.04	170
1331.54	160
1337.04	138
1342.53	156
1348.02	160
1353.5	158
1358.98	142
1364.45	144
1369.91	174
1375.37	348
1380.82	424
1386.27	284
1391.71	152
1397.15	144
1402.58	138
1408.01	134
1413.43	150
1418.85	148
1424.26	176
1429.66	188
1435.06	194
1440.46	204
1445.85	188
1451.23	176
1456.61	160
1461.98	156
1467.35	144
1472.71	140
1478.07	142
1483.42	136
1488.77	122
1494.11	112
1499.45	114
1504.78	108
1510.11	106
1515.43	116
1520.74	104
1526.05	106
1531.36	124
1536.66	106
1541.95	116
1547.24	108
1552.52	110
1557.8	118
1563.08	114
1568.35	108
1573.61	122
1578.87	146
1584.12	174
1589.37	240
1594.61	330
1599.85	450
1605.08	456
1610.31	356
1615.53	252
1620.75	170
1625.96	132
1631.17	110
1636.37	94
1641.57	92
1646.76	88
1651.95	78
1657.13	88
1662.31	88
1667.48	70
1672.65	78
1677.81	80
1682.97	70
1688.12	78
1693.27	80
1698.41	80
1702.26	70

File: ps-ppo-6jan25-0,0000-map2_Y05_X02.txt
204.377	398
211.048	356
217.712	334
224.369	470
231.019	926
237.661	932
244.297	642
250.924	394
257.546	266
264.16	198
270.766	180
277.365	186
283.958	240
290.543	362
297.121	434
303.693	338
310.256	260
316.813	252
323.362	236
329.905	252
336.441	252
342.969	216
349.491	196
356.006	224
362.513	180
369.014	204
375.508	198
381.994	146
388.473	128
394.947	130
401.412	132
407.871	148
414.323	220
420.768	178
427.206	120
433.637	104
440.062	78
446.479	74
452.89	82
459.293	84
465.691	106
472.081	160
478.463	238
484.84	296
491.21	180
497.573	108
503.929	110
510.279	162
516.621	158
522.957	168
529.287	216
535.609	418
541.925	422
548.234	198
554.536	210
560.832	398
567.12	1468
573.403	2000
579.679	476
585.948	334
592.211	288
598.466	208
604.715	118
610.958	96
617.194	88
623.424	112
629.647	142
635.864	162
642.074	124
648.276	98
654.473	84
660.664	70
666.847	66
673.025	60
679.195	58
685.36	68
691.517	60
697.669	58
703.814	72
709.953	74
716.085	98
722.21	78
728.33	66
734.443	76
740.549	90
746.65	140
752.743	124
758.831	94
764.912	68
770.986	72
777.055	78
783.117	76
789.173	70
795.222	70
801.265	68
807.302	74
813.333	74
819.357	78
825.376	130
831.387	498
837.392	252
843.392	104
849.386	94
855.372	86
861.353	78
867.328	74
873.296	60
879.258	64
885.214	66
891.164	58
897.108	58
903.046	60
908.977	52
914.903	60
920.822	54
926.735	58
932.643	70
938.543	72
944.439	94
950.328	148
956.21	308
962.088	358
967.958	224
973.824	126
979.682	84
985.534	76
991.382	78
997.222	64
1003.06	64
1008.89	64
1014.71	62
1020.53	76
1026.34	90
1032.14	104
1037.94	96
1043.73	84
1049.52	72
1055.3	66
1061.08	62
1066.85	66
1072.61	66
1078.37	60
1084.12	62
1089.87	62
1095.61	68
1101.34	72
1107.07	150
1112.8	352
1118.51	150
1124.22	104
1129.93	84
1135.63	86
1141.32	94
1147.01	72
1152.69	84
1158.37	84
1164.04	86
1169.71	90
1175.37	106
1181.02	140
1186.67	256
1192.31	188
1197.95	162
1203.58	174
1209.2	134
1214.82	102
1220.44	88
1226.05	122
1231.65	114
1237.25	90
1242.84	92
1248.42	82
1254	96
1259.58	98
1265.15	84
1270.71	104
1276.27	98
1281.82	124
1287.37	148
1292.91	206
1298.45	352
1303.98	770
1309.5	512
1315.02	274
1320.53	198
1326.04	194
1331.54	168
1337.04	156
1342.53	140
1348.02	162
1353.5	168
1358.98	150
1364.45	158
1369.91	178
1375.37	352
1380.82	432
1386.27	266
1391.71	158
1397.15	160
1402.58	138
1408.01	134
1413.43	152
1418.85	170
1424.26	196
1429.66	192
1435.06	210
1440.46	214
1445.85	194
1451.23	174
1456.61	150
1461.98	160
1467.35	154
1472.71	148
1478.07	150
1483.42	146
1488.77	122
1494.11	124
1499.45	120
1504.78	118
1510.11	116
1515.43	104
1520.74	108
1526.05	102
1531.36	110
1536.66	116
1541.95	100
1547.24	112
1552.52	106
1557.8	110
1563.08	116
1568.35	118
1573.61	126
1578.87	148
1584.12	178
1589.37	224
1594.61	348
1599.85	450
1605.08	448
1610.31	360
1615.53	254
1620.75	174
1625.96	138
1631.17	108
1636.37	102
1641.57	96
1646.76	86
1651.95	88
1657.13	88
1662.31	86
1667.48	74
1672.65	78
1677.81	80
1682.97	84
1688.12	82
1693.27	90
1698.41	84
1702.26	76

File: ps-ppo-6jan25-0,0000-map2_Y05_X03.txt
204.377	376
211.048	336
217.712	334
224.369	476
231.019	882
237.661	942
244.297	634
250.924	392
257.546	248
264.16	206
270.766	174
277.365	180
283.958	236
290.543	348
297.121	420
303.693	334
310.256	248
316.813	224
323.362	230
329.905	258
336.441	252
342.969	210
349.491	216
356.006	230
362.513	200
369.014	178
375.508	186
381.994	150
388.473	142
394.947	134
401.412	142
407.871	148
414.323	216
420.768	164
427.206	124
433.637	90
440.062	88
446.479	78
452.89	80
459.293	92
465.691	100
472.081	150
478.463	212
484.84	280
491.21	172
497.573	106
503.929	112
510.279	150
516.621	174
522.957	162
529.287	234
535.609	404
541.925	414
548.234	222
554.536	214
560.832	414
567.12	1424
573.403	1992
579.679	504
585.948	334
592.211	270
598.466	200
604.715	120
610.958	94
617.194	86
623.424	112
629.647	134
635.864	162
642.074	138
648.276	94
654.473	86
660.664	74
666.847	64
673.025	66
679.195	62
685.36	70
691.517	58
697.669	62
703.814	68
709.953	80
716.085	108
722.21	78
728.33	72
734.443	86
740.549	90
746.65	144
752.743	118
758.831	92
764.912	78
770.986	72
777.055	84
783.117	74
789.173	70
795.222	70
801.265	64
807.302	70
813.333	86
819.357	84
825.376	124
831.387	478
837.392	242
843.392	104
849.386	104
855.372	84
861.353	78
867.328	76
873.296	62
879.258	62
885.214	66
891.164	54
897.108	56
903.046	58
908.977	64
914.903	60
920.822	56
926.735	58
932.643	54
938.543	68
944.439	96
950.328	152
956.21	282
962.088	362
967.958	218
973.824	138
979.682	84
985.534	74
991.382	76
997.222	56
1003.06	58
1008.89	64
1014.71	66
1020.53	76
1026.34	90
1032.14	96
1037.94	102
1043.73	72
1049.52	70
1055.3	62
1061.08	76
1066.85	60
1072.61	60
1078.37	62
1084.12	68
1089.87	66
1095.61	68
1101.34	84
1107.07	138
1112.8	364
1118.51	148
1124.22	106
1129.93	86
1135.63	86
1141.32	92
1147.01	80
1152.69	70
1158.37	88
1164.04	98
1169.71	88
1175.37	98
1181.02	134
1186.67	244
1192.31	176
1197.95	166
1203.58	170
1209.2	128
1214.82	104
1220.44	96
1226.05	112
1231.65	134
1237.25	94
1242.84	82
1248.42	76
1254	84
1259.58	94
1265.15	86
1270.71	106
1276.27	104
1281.82	124
1287.37	160
1292.91	200
1298.45	350
1303.98	788
1309.5	536
1315.02	264
1320.53	184
1326.04	184
1331.54	170
1337.04	150
1342.53	152
1348.02	168
1353.5	164
1358.98	148
1364.45	156
1369.91	176
1375.37	338
1380.82	416
1386.27	282
1391.71	172
1397.15	140
1402.58	126
1408.01	142
1413.43	144
1418.85	158
1424.26	168
1429.66	176
1435.06	214
1440.46	218
1445.85	204
1451.23	172
1456.61	164
1461.98	158
1467.35	172
1472.71	150
1478.07	156
1483.42	144
1488.77	124
1494.11	122
1499.45	124
1504.78	102
1510.11	110
1515.43	108
1520.74	116
1526.05	116
1531.36	114
1536.66	100
1541.95	106
1547.24	112
1552.52	110
1557.8	98
1563.08	120
1568.35	110
1573.61	126
1578.87	148
1584.12	182
1589.37	252
1594.61	328
1599.85	460
1605.08	428
1610.31	360
1615.53	252
1620.75	176
1625.96	142
1631.17	118
1636.37	98
1641.57	94
1646.76	94
1651.95	88
1657.13	90
1662.31	82
1667.48	82
1672.65	80
1677.81	80
1682.97	84
1688.12	80
1693.27	78
1698.41	80
1702.26	78

File: ps-ppo-6jan25-0,0000-map2_Y05_X04.txt
204.377	368
211.048	320
217.712	322
224.369	444
231.019	868
237.661	874
244.297	608
250.924	394
257.546	258
264.16	196
270.766	180
277.365	174
283.958	224
290.543	360
297.121	412
303.693	318
310.256	252
316.813	226
323.362	218
329.905	244
336.441	250
342.969	194
349.491	192
356.006	214
362.513	184
369.014	180
375.508	182
381.994	136
388.473	134
394.947	122
401.412	118
407.871	142
414.323	194
420.768	160
427.206	112
433.637	98
440.062	80
446.479	70
452.89	88
459.293	78
465.691	92
472.081	144
478.463	212
484.84	270
491.21	152
497.573	112
503.929	96
510.279	146
516.621	164
522.957	144
529.287	222
535.609	400
541.925	386
548.234	214
554.536	206
560.832	378
567.12	1382
573.403	1862
579.679	464
585.948	322
592.211	242
598.466	216
604.715	114
610.958	92
617.194	90
623.424	106
629.647	132
635.864	152
642.074	122
648.276	110
654.473	90
660.664	70
666.847	62
673.025	58
679.195	56
685.36	58
691.517	62
697.669	60
703.814	60
709.953	76
716.085	96
722.21	74
728.33	68
734.443	66
740.549	86
746.65	134
752.743	116
758.831	80
764.912	72
770.986	74
777.055	66
783.117	70
789.173	70
795.222	64
801.265	64
807.302	72
813.333	68
819.357	86
825.376	120
831.387	472
837.392	230
843.392	86
849.386	86
855.372	80
861.353	82
867.328	68
873.296	60
879.258	58
885.214	56
891.164	56
897.108	62
903.046	58
908.977	58
914.903	54
920.822	60
926.735	50
932.643	62
938.543	68
944.439	90
950.328	134
956.21	286
962.088	362
967.958	206
973.824	134
979.682	78
985.534	68
991.382	76
997.222	60
1003.06	66
1008.89	58
1014.71	60
1020.53	74
1026.34	72
1032.14	92
1037.94	82
1043.73	86
1049.52	64
1055.3	64
1061.08	64
1066.85	62
1072.61	58
1078.37	58
1084.12	62
1089.87	58
1095.61	62
1101.34	82
1107.07	142
1112.8	344
1118.51	148
1124.22	98
1129.93	82
1135.63	74
1141.32	86
1147.01	76
1152.69	66
1158.37	88
1164.04	88
1169.71	82
1175.37	100
1181.02	142
1186.67	218
1192.31	162
1197.95	140
1203.58	164
1209.2	114
1214.82	86
1220.44	84
1226.05	108
1231.65	126
1237.25	86
1242.84	80
1248.42	86
1254	84
1259.58	70
1265.15	94
1270.71	92
1276.27	84
1281.82	132
1287.37	142
1292.91	184
1298.45	348
1303.98	740
1309.5	506
1315.02	248
1320.53	186
1326.04	180
1331.54	166
1337.04	144
1342.53	148
1348.02	148
1353.5	164
1358.98	138
1364.45	142
1369.91	180
1375.37	330
1380.82	384
1386.27	254
1391.71	150
1397.15	134
1402.58	140
1408.01	134
1413.43	134
1418.85	154
1424.26	182
1429.66	180
1435.06	194
1440.46	206
1445.85	194
1451.23	162
1456.61	146
1461.98	146
1467.35	156
1472.71	146
1478.07	150
1483.42	142
1488.77	126
1494.11	128
1499.45	112
1504.78	114
1510.11	106
1515.43	108
1520.74	106
1526.05	108
1531.36	108
1536.66	106
1541.95	102
1547.24	112
1552.52	112
1557.8	120
1563.08	102
1568.35	118
1573.61	120
1578.87	132
1584.12	186
1589.37	224
1594.61	328
1599.85	426
1605.08	426
1610.31	334
1615.53	240
1620.75	164
1625.96	132
1631.17	108
1636.37	92
1641.57	92
1646.76	78
1651.95	76
1657.13	82
1662.31	82
1667.48	86
1672.65	76
1677.81	80
1682.97	78
1688.12	72
1693.27	76
1698.41	84
1702.26	86

File: ps-ppo-6jan25-0,0000-map2_Y05_X06.txt
204.377	372
211.048	336
217.712	324
224.369	476
231.019	882
237.661	898
244.297	628
250.924	372
257.546	260
264.16	192
270.766	184
277.365	176
283.958	220
290.543	350
297.121	396
303.693	308
310.256	258
316.813	222
323.362	220
329.905	240
336.441	252
342.969	202
349.491	200
356.006	206
362.513	176
369.014	182
375.508	180
381.994	154
388.473	134
394.947	122
401.412	112
407.871	154
414.323	196
420.768	150
427.206	110
433.637	88
440.062	88
446.479	68
452.89	72
459.293	74
465.691	104
472.081	144
478.463	216
484.84	294
491.21	156
497.573	108
503.929	84
510.279	158
516.621	166
522.957	146
529.287	224
535.609	390
541.925	392
548.234	198
554.536	192
560.832	410
567.12	1374
573.403	1896
579.679	486
585.948	334
592.211	252
598.466	196
604.715	112
610.958	96
617.194	86
623.424	98
629.647	128
635.864	140
642.074	116
648.276	104
654.473	82
660.664	68
666.847	62
673.025	56
679.195	58
685.36	62
691.517	54
697.669	54
703.814	56
709.953	80
716.085	94
722.21	74
728.33	72
734.443	80
740.549	84
746.65	128
752.743	120
758.831	94
764.912	64
770.986	68
777.055	74
783.117	82
789.173	68
795.222	62
801.265	64
807.302	80
813.333	66
819.357	78
825.376	118
831.387	478
837.392	224
843.392	106
849.386	98
855.372	86
861.353	70
867.328	74
873.296	58
879.258	66
885.214	62
891.164	54
897.108	54
903.046	52
908.977	54
914.903	50
920.822	56
926.735	52
932.643	60
938.543	66
944.439	94
950.328	138
956.21	286
962.088	340
967.958	204
973.824	126
979.682	74
985.534	76
991.382	72
997.222	56
1003.06	50
1008.89	54
1014.71	66
1020.53	66
1026.34	70
1032.14	88
1037.94	96
1043.73	80
1049.52	66
1055.3	56
1061.08	58
1066.85	56
1072.61	60
1078.37	56
1084.12	64
1089.87	62
1095.61	66
1101.34	76
1107.07	134
1112.8	342
1118.51	154
1124.22	92
1129.93	78
1135.63	80
1141.32	82
1147.01	76
1152.69	64
1158.37	74
1164.04	86
1169.71	74
1175.37	90
1181.02	144
1186.67	230
1192.31	160
1197.95	144
1203.58	152
1209.2	126
1214.82	86
1220.44	96
1226.05	110
1231.65	130
1237.25	92
1242.84	74
1248.42	78
1254	80
1259.58	82
1265.15	94
1270.71	92
1276.27	94
1281.82	122
1287.37	138
1292.91	204
1298.45	330
1303.98	722
1309.5	478
1315.02	256
1320.53	194
1326.04	174
1331.54	172
1337.04	132
1342.53	142
1348.02	142
1353.5	158
1358.98	154
1364.45	138
1369.91	164
1375.37	336
1380.82	408
1386.27	266
1391.71	164
1397.15	126
1402.58	130
1408.01	132
1413.43	138
1418.85	160
1424.26	180
1429.66	190
1435.06	204
1440.46	204
1445.85	200
1451.23	174
1456.61	158
1461.98	154
1467.35	144
1472.71	136
1478.07	138
1483.42	136
1488.77	120
1494.11	110
1499.45	114
1504.78	110
1510.11	114
1515.43	104
1520.74	104
1526.05	92
1531.36	112
1536.66	106
1541.95	94
1547.24	98
1552.52	108
1557.8	116
1563.08	106
1568.35	110
1573.61	132
1578.87	132
1584.12	168
1589.37	228
1594.61	318
1599.85	414
1605.08	432
1610.31	338
1615.53	238
1620.75	174
1625.96	124
1631.17	102
1636.37	98
1641.57	74
1646.76	80
1651.95	86
1657.13	82
1662.31	72
1667.48	76
1672.65	76
1677.81	78
1682.97	72
1688.12	76
1693.27	82
1698.41	66
1702.26	70

File: ps-ppo-6jan25-0,0000-map2_Y05_X08.txt
204.377	382
211.048	350
217.712	344
224.369	486
231.019	924
237.661	924
244.297	614
250.924	408
257.546	270
264.16	198
270.766	174
277.365	178
283.958	242
290.543	400
297.121	434
303.693	346
310.256	264
316.813	226
323.362	216
329.905	268
336.441	262
342.969	222
349.491	216
356.006	224
362.513	192
369.014	190
375.508	188
381.994	142
388.473	124
394.947	130
401.412	128
407.871	154
414.323	220
420.768	162
427.206	110
433.637	106
440.062	88
446.479	76
452.89	74
459.293	86
465.691	110
472.081	148
478.463	222
484.84	302
491.21	166
497.573	112
503.929	108
510.279	164
516.621	154
522.957	166
529.287	224
535.609	398
541.925	426
548.234	236
554.536	204
560.832	414
567.12	1476
573.403	1986
579.679	516
585.948	342
592.211	270
598.466	218
604.715	120
610.958	96
617.194	88
623.424	120
629.647	138
635.864	158
642.074	122
648.276	104
654.473	78
660.664	78
666.847	66
673.025	62
679.195	62
685.36	64
691.517	62
697.669	56
703.814	60
709.953	80
716.085	94
722.21	80
728.33	80
734.443	84
740.549	84
746.65	148
752.743	110
758.831	94
764.912	68
770.986	66
777.055	80
783.117	80
789.173	68
795.222	64
801.265	66
807.302	72
813.333	68
819.357	92
825.376	130
831.387	504
837.392	254
843.392	98
849.386	102
855.372	98
861.353	76
867.328	76
873.296	58
879.258	64
885.214	62
891.164	54
897.108	58
903.046	66
908.977	58
914.903	60
920.822	52
926.735	60
932.643	66
938.543	68
944.439	82
950.328	156
956.21	310
962.088	374
967.958	234
973.824	140
979.682	86
985.534	68
991.382	76
997.222	64
1003.06	62
1008.89	66
1014.71	68
1020.53	64
1026.34	94
1032.14	100
1037.94	90
1043.73	82
1049.52	70
1055.3	74
1061.08	64
1066.85	60
1072.61	62
1078.37	64
1084.12	64
1089.87	66
1095.61	72
1101.34	82
1107.07	138
1112.8	368
1118.51	164
1124.22	98
1129.93	86
1135.63	86
1141.32	84
1147.01	74
1152.69	76
1158.37	84
1164.04	86
1169.71	80
1175.37	100
1181.02	132
1186.67	234
1192.31	176
1197.95	154
1203.58	196
1209.2	124
1214.82	100
1220.44	92
1226.05	98
1231.65	132
1237.25	102
1242.84	84
1248.42	96
1254	84
1259.58	96
1265.15	88
1270.71	102
1276.27	114
1281.82	130
1287.37	164
1292.91	192
1298.45	358
1303.98	762
1309.5	542
1315.02	260
1320.53	200
1326.04	180
1331.54	162
1337.04	130
1342.53	162
1348.02	166
1353.5	172
1358.98	146
1364.45	158
1369.91	180
1375.37	346
1380.82	420
1386.27	280
1391.71	154
1397.15	130
1402.58	144
1408.01	144
1413.43	140
1418.85	156
1424.26	182
1429.66	192
1435.06	188
1440.46	220
1445.85	198
1451.23	174
1456.61	156
1461.98	162
1467.35	148
1472.71	142
1478.07	158
1483.42	136
1488.77	114
1494.11	124
1499.45	124
1504.78	116
1510.11	114
1515.43	112
1520.74	108
1526.05	108
1531.36	104
1536.66	110
1541.95	102
1547.24	96
1552.52	108
1557.8	122
1563.08	112
1568.35	118
1573.61	126
1578.87	158
1584.12	184
1589.37	256
1594.61	354
1599.85	488
1605.08	458
1610.31	340
1615.53	240
1620.75	164
1625.96	140
1631.17	122
1636.37	106
1641.57	94
1646.76	90
1651.95	88
1657.13	86
1662.31	78
1667.48	76
1672.65	80
1677.81	78
1682.97	80
1688.12	76
1693.27	88
1698.41	80
1702.26	74

File: ps-ppo-6jan25-0,0000-map2_Y05_X09.txt
204.377	414
211.048	348
217.712	374
224.369	492
231.019	942
237.661	958
244.297	666
250.924	434
257.546	278
264.16	220
270.766	186
277.365	174
283.958	248
290.543	400
297.121	450
303.693	320
310.256	264
316.813	248
323.362	230
329.905	264
336.441	278
342.969	210
349.491	220
356.006	226
362.513	188
369.014	206
375.508	196
381.994	158
388.473	136
394.947	132
401.412	122
407.871	154
414.323	218
420.768	172
427.206	116
433.637	100
440.062	92
446.479	78
452.89	74
459.293	76
465.691	104
472.081	150
478.463	238
484.84	294
491.21	178
497.573	112
503.929	86
510.279	162
516.621	188
522.957	162
529.287	242
535.609	426
541.925	414
548.234	220
554.536	222
560.832	420
567.12	1494
573.403	2074
579.679	526
585.948	350
592.211	280
598.466	202
604.715	118
610.958	96
617.194	100
623.424	120
629.647	134
635.864	156
642.074	138
648.276	104
654.473	88
660.664	78
666.847	66
673.025	62
679.195	60
685.36	62
691.517	56
697.669	58
703.814	58
709.953	88
716.085	94
722.21	78
728.33	70
734.443	80
740.549	84
746.65	136
752.743	120
758.831	102
764.912	74
770.986	68
777.055	82
783.117	86
789.173	66
795.222	64
801.265	72
807.302	82
813.333	72
819.357	86
825.376	140
831.387	494
837.392	248
843.392	102
849.386	92
855.372	86
861.353	80
867.328	74
873.296	64
879.258	62
885.214	58
891.164	54
897.108	56
903.046	58
908.977	56
914.903	52
920.822	60
926.735	62
932.643	66
938.543	70
944.439	98
950.328	150
956.21	340
962.088	394
967.958	236
973.824	144
979.682	86
985.534	70
991.382	66
997.222	62
1003.06	62
1008.89	58
1014.71	68
1020.53	74
1026.34	88
1032.14	98
1037.94	96
1043.73	82
1049.52	74
1055.3	66
1061.08	70
1066.85	68
1072.61	68
1078.37	60
1084.12	64
1089.87	70
1095.61	70
1101.34	84
1107.07	142
1112.8	366
1118.51	172
1124.22	106
1129.93	90
1135.63	80
1141.32	90
1147.01	74
1152.69	74
1158.37	92
1164.04	84
1169.71	88
1175.37	102
1181.02	156
1186.67	254
1192.31	178
1197.95	148
1203.58	174
1209.2	136
1214.82	92
1220.44	100
1226.05	114
1231.65	130
1237.25	102
1242.84	90
1248.42	90
1254	88
1259.58	94
1265.15	94
1270.71	98
1276.27	110
1281.82	124
1287.37	150
1292.91	192
1298.45	372
1303.98	798
1309.5	554
1315.02	260
1320.53	196
1326.04	196
1331.54	168
1337.04	150
1342.53	160
1348.02	166
1353.5	170
1358.98	146
1364.45	150
1369.91	176
1375.37	344
1380.82	418
1386.27	292
1391.71	166
1397.15	140
1402.58	144
1408.01	136
1413.43	148
1418.85	160
1424.26	176
1429.66	192
1435.06	198
1440.46	226
1445.85	198
1451.23	176
1456.61	170
1461.98	160
1467.35	152
1472.71	148
1478.07	146
1483.42	128
1488.77	132
1494.11	128
1499.45	110
1504.78	118
1510.11	108
1515.43	116
1520.74	110
1526.05	118
1531.36	122
1536.66	108
1541.95	108
1547.24	114
1552.52	112
1557.8	112
1563.08	116
1568.35	130
1573.61	130
1578.87	148
1584.12	194
1589.37	240
1594.61	358
1599.85	474
1605.08	486
1610.31	356
1615.53	260
1620.75	168
1625.96	122
1631.17	98
1636.37	94
1641.57	100
1646.76	84
1651.95	76
1657.13	88
1662.31	78
1667.48	80
1672.65	72
1677.81	82
1682.97	78
1688.12	90
1693.27	76
1698.41	76
1702.26	78