Folder: NRC_SU25_Spectral_Classification/Jesse_Dataset_v2/Pure Raman/Polystyrene/633nm (part 5)

File: ps-ppo-7jan25-1,0000-map3_Y05_X04.txt
182.393	1010
192.79	946
203.174	940
213.542	1052
223.897	1058
234.238	842
244.566	542
254.878	388
265.178	334
275.463	328
285.734	276
295.992	254
306.236	228
316.467	240
326.684	238
336.887	230
347.075	210
357.251	216
367.413	218
377.562	230
387.697	264
397.819	302
407.926	334
418.02	266
428.101	246
438.169	208
448.223	210
458.264	186
468.291	176
478.306	178
488.307	176
498.294	182
508.269	194
518.23	190
528.177	208
538.113	252
548.034	254
557.942	248
567.838	252
577.72	236
587.589	212
597.446	224
607.289	244
617.119	416
626.936	544
636.741	220
646.533	182
656.313	160
666.078	154
675.831	168
685.571	158
695.299	182
705.014	218
714.716	220
724.406	284
734.082	284
743.746	358
753.398	392
763.037	466
772.664	444
782.278	446
791.879	650
801.467	618
811.044	392
820.608	288
830.16	258
839.699	328
849.226	330
858.741	284
868.243	300
877.731	284
887.209	270
896.674	288
906.128	348
915.569	296
924.997	240
934.414	244
943.818	260
953.211	258
962.59	274
971.958	324
981.314	456
990.659	1164
999.99	4128
1009.31	1554
1018.62	470
1027.91	1174
1037.2	1442
1046.47	468
1055.73	394
1064.98	432
1074.22	462
1083.44	420
1092.65	430
1101.86	428
1111.05	340
1120.22	310
1129.39	276
1138.54	296
1147.69	398
1156.82	984
1165.94	530
1175.05	616
1184.14	1194
1193.23	1132
1202.3	1144
1211.36	726
1220.41	472
1229.45	436
1238.48	374
1247.5	374
1256.5	358
1265.49	354
1274.48	342
1283.45	344
1292.41	392
1301.36	404
1310.29	422
1319.22	466
1328.13	502
1337.04	488
1345.93	382
1354.81	338
1363.68	376
1372.54	374
1381.38	328
1390.22	280
1399.05	276
1407.86	264
1416.66	276
1425.46	254
1434.24	318
1443.01	484
1451.77	592
1460.52	346
1469.25	280
1477.98	258
1486.7	254
1495.4	286
1504.1	240
1512.78	264
1521.45	262
1530.11	284
1538.76	252
1547.41	272
1556.03	268
1564.65	306
1573.26	370
1581.86	806
1590.45	610
1599.02	1210
1607.59	1330
1616.14	464
1624.69	338
1633.22	326
1641.75	326
1650.26	344
1658.76	280
1667.26	274
1675.74	292
1684.21	282
1692.67	294
1701.12	286
1709.56	262
1717.99	280
1726.41	270
1734.82	286
1743.22	282
1751.61	280
1759.99	272
1768.36	276
1776.71	284
1785.06	274
1793.4	290
1801.73	288
1810.04	286
1818.35	280
1826.65	290
1834.94	284
1843.21	276
1851.48	278
1859.74	282
1867.98	296
1876.22	284
1884.45	298
1892.67	282
1900.87	298
1909.07	292
1917.26	300
1925.43	300
1933.6	304
1941.76	304
1949.91	294
1958.05	292
1966.17	294
1974.29	296
1982.4	310
1990.5	302
1998.59	288
2006.67	308
2014.74	290
2022.8	308
2030.85	306
2038.89	310
2046.92	310
2054.94	310
2062.95	314
2070.96	314
2078.95	318
2086.93	324
2094.91	324
2102.87	324
2110.83	296
2118.77	312
2126.71	338
2134.63	316
2142.55	328
2150.46	324
2158.35	314
2166.24	308
2174.12	324
2181.99	326
2189.85	314
2197.7	336
2205.55	316
2213.38	320
2221.2	330
2229.02	342
2236.82	334
2244.62	322
2252.4	346
2260.18	342
2267.95	318
2275.71	336
2283.46	328
2291.2	336
2298.93	342
2306.65	342
2314.37	352
2322.07	316
2329.77	346
2337.45	340
2345.13	346
2352.8	342
2360.46	350
2368.11	356
2375.75	330
2383.38	364
2391.01	322
2398.62	346
2406.23	330
2413.82	354
2421.41	350
2428.99	362
2436.56	332
2444.12	360
2449.79	354

File: ps-ppo-7jan25-1,0000-map3_Y05_X06.txt
182.393	986
192.79	910
203.174	924
213.542	1034
223.897	1032
234.238	816
244.566	504
254.878	340
265.178	318
275.463	286
285.734	248
295.992	234
306.236	220
316.467	222
326.684	212
336.887	224
347.075	208
357.251	206
367.413	200
377.562	204
387.697	230
397.819	250
407.926	320
418.02	258
428.101	214
438.169	200
448.223	172
458.264	172
468.291	158
478.306	150
488.307	150
498.294	152
508.269	170
518.23	172
528.177	176
538.113	218
548.034	244
557.942	228
567.838	230
577.72	228
587.589	190
597.446	182
607.289	232
617.119	400
626.936	514
636.741	202
646.533	156
656.313	142
666.078	138
675.831	140
685.571	144
695.299	156
705.014	200
714.716	182
724.406	250
734.082	248
743.746	356
753.398	406
763.037	462
772.664	398
782.278	410
791.879	628
801.467	586
811.044	370
820.608	262
830.16	238
839.699	316
849.226	312
858.741	260
868.243	266
877.731	270
887.209	250
896.674	260
906.128	330
915.569	272
924.997	212
934.414	218
943.818	224
953.211	234
962.59	274
971.958	300
981.314	398
990.659	1164
999.99	4162
1009.31	1530
1018.62	430
1027.91	1156
1037.2	1380
1046.47	460
1055.73	356
1064.98	386
1074.22	426
1083.44	388
1092.65	390
1101.86	390
1111.05	316
1120.22	282
1129.39	240
1138.54	252
1147.69	366
1156.82	932
1165.94	472
1175.05	582
1184.14	1178
1193.23	1106
1202.3	1122
1211.36	688
1220.41	436
1229.45	386
1238.48	338
1247.5	316
1256.5	326
1265.49	330
1274.48	318
1283.45	314
1292.41	346
1301.36	370
1310.29	404
1319.22	454
1328.13	510
1337.04	462
1345.93	368
1354.81	364
1363.68	332
1372.54	364
1381.38	322
1390.22	260
1399.05	258
1407.86	246
1416.66	242
1425.46	240
1434.24	312
1443.01	442
1451.77	588
1460.52	342
1469.25	252
1477.98	244
1486.7	238
1495.4	280
1504.1	244
1512.78	238
1521.45	244
1530.11	244
1538.76	242
1547.41	244
1556.03	256
1564.65	282
1573.26	334
1581.86	762
1590.45	576
1599.02	1226
1607.59	1266
1616.14	450
1624.69	344
1633.22	284
1641.75	292
1650.26	336
1658.76	264
1667.26	276
1675.74	280
1684.21	260
1692.67	260
1701.12	274
1709.56	270
1717.99	262
1726.41	272
1734.82	254
1743.22	264
1751.61	256
1759.99	262
1768.36	248
1776.71	250
1785.06	262
1793.4	254
1801.73	258
1810.04	262
1818.35	284
1826.65	266
1834.94	272
1843.21	270
1851.48	264
1859.74	274
1867.98	264
1876.22	256
1884.45	274
1892.67	258
1900.87	276
1909.07	290
1917.26	302
1925.43	294
1933.6	268
1941.76	280
1949.91	268
1958.05	294
1966.17	310
1974.29	286
1982.4	284
1990.5	282
1998.59	294
2006.67	278
2014.74	290
2022.8	294
2030.85	292
2038.89	286
2046.92	296
2054.94	290
2062.95	298
2070.96	306
2078.95	288
2086.93	292
2094.91	316
2102.87	296
2110.83	300
2118.77	300
2126.71	302
2134.63	306
2142.55	294
2150.46	300
2158.35	310
2166.24	300
2174.12	308
2181.99	310
2189.85	306
2197.7	324
2205.55	302
2213.38	320
2221.2	318
2229.02	322
2236.82	308
2244.62	312
2252.4	324
2260.18	306
2267.95	314
2275.71	330
2283.46	318
2291.2	318
2298.93	324
2306.65	334
2314.37	334
2322.07	308
2329.77	318
2337.45	326
2345.13	340
2352.8	334
2360.46	316
2368.11	336
2375.75	332
2383.38	324
2391.01	328
2398.62	328
2406.23	316
2413.82	352
2421.41	330
2428.99	340
2436.56	346
2444.12	350
2449.79	336

File: ps-ppo-7jan25-1,0000-map3_Y05_X08.txt
182.393	1032
192.79	956
203.174	932
213.542	1038
223.897	1086
234.238	862
244.566	538
254.878	408
265.178	368
275.463	358
285.734	298
295.992	280
306.236	266
316.467	264
326.684	274
336.887	262
347.075	248
357.251	250
367.413	236
377.562	266
387.697	282
397.819	306
407.926	388
418.02	310
428.101	262
438.169	248
448.223	248
458.264	206
468.291	206
478.306	206
488.307	222
498.294	210
508.269	218
518.23	218
528.177	242
538.113	264
548.034	290
557.942	276
567.838	276
577.72	268
587.589	240
597.446	254
607.289	298
617.119	444
626.936	552
636.741	244
646.533	204
656.313	192
666.078	192
675.831	188
685.571	192
695.299	212
705.014	240
714.716	234
724.406	304
734.082	298
743.746	384
753.398	448
763.037	496
772.664	438
782.278	470
791.879	666
801.467	620
811.044	428
820.608	304
830.16	284
839.699	366
849.226	366
858.741	310
868.243	316
877.731	296
887.209	302
896.674	318
906.128	374
915.569	328
924.997	268
934.414	274
943.818	288
953.211	282
962.59	318
971.958	356
981.314	454
990.659	1172
999.99	4194
1009.31	1598
1018.62	474
1027.91	1202
1037.2	1426
1046.47	502
1055.73	386
1064.98	416
1074.22	456
1083.44	440
1092.65	418
1101.86	432
1111.05	366
1120.22	304
1129.39	296
1138.54	310
1147.69	416
1156.82	966
1165.94	526
1175.05	632
1184.14	1180
1193.23	1154
1202.3	1166
1211.36	736
1220.41	498
1229.45	440
1238.48	390
1247.5	378
1256.5	374
1265.49	350
1274.48	348
1283.45	364
1292.41	402
1301.36	426
1310.29	428
1319.22	456
1328.13	542
1337.04	490
1345.93	414
1354.81	386
1363.68	390
1372.54	386
1381.38	354
1390.22	282
1399.05	288
1407.86	292
1416.66	282
1425.46	290
1434.24	342
1443.01	494
1451.77	614
1460.52	422
1469.25	308
1477.98	286
1486.7	296
1495.4	312
1504.1	292
1512.78	292
1521.45	310
1530.11	310
1538.76	300
1547.41	312
1556.03	324
1564.65	324
1573.26	398
1581.86	822
1590.45	622
1599.02	1240
1607.59	1332
1616.14	502
1624.69	400
1633.22	350
1641.75	368
1650.26	374
1658.76	330
1667.26	308
1675.74	336
1684.21	322
1692.67	328
1701.12	318
1709.56	324
1717.99	338
1726.41	330
1734.82	338
1743.22	314
1751.61	324
1759.99	310
1768.36	318
1776.71	330
1785.06	328
1793.4	330
1801.73	324
1810.04	334
1818.35	358
1826.65	356
1834.94	320
1843.21	316
1851.48	326
1859.74	348
1867.98	328
1876.22	336
1884.45	348
1892.67	342
1900.87	346
1909.07	364
1917.26	336
1925.43	350
1933.6	360
1941.76	350
1949.91	346
1958.05	356
1966.17	350
1974.29	366
1982.4	358
1990.5	358
1998.59	336
2006.67	346
2014.74	342
2022.8	340
2030.85	358
2038.89	340
2046.92	360
2054.94	360
2062.95	360
2070.96	362
2078.95	352
2086.93	358
2094.91	362
2102.87	376
2110.83	384
2118.77	344
2126.71	376
2134.63	348
2142.55	362
2150.46	358
2158.35	354
2166.24	368
2174.12	372
2181.99	364
2189.85	378
2197.7	346
2205.55	372
2213.38	366
2221.2	358
2229.02	360
2236.82	358
2244.62	356
2252.4	392
2260.18	368
2267.95	368
2275.71	368
2283.46	360
2291.2	352
2298.93	362
2306.65	378
2314.37	356
2322.07	364
2329.77	364
2337.45	370
2345.13	378
2352.8	366
2360.46	356
2368.11	368
2375.75	360
2383.38	346
2391.01	376
2398.62	346
2406.23	384
2413.82	370
2421.41	372
2428.99	384
2436.56	364
2444.12	380
2449.79	376

File: ps-ppo-7jan25-1,0000-map3_Y05_X09.txt
182.393	1036
192.79	982
203.174	966
213.542	1080
223.897	1096
234.238	870
244.566	548
254.878	418
265.178	402
275.463	342
285.734	308
295.992	302
306.236	264
316.467	270
326.684	260
336.887	264
347.075	256
357.251	246
367.413	230
377.562	256
387.697	298
397.819	324
407.926	384
418.02	320
428.101	260
438.169	240
448.223	228
458.264	204
468.291	208
478.306	204
488.307	202
498.294	202
508.269	214
518.23	216
528.177	220
538.113	278
548.034	290
557.942	264
567.838	250
577.72	282
587.589	232
597.446	230
607.289	276
617.119	446
626.936	568
636.741	224
646.533	202
656.313	194
666.078	188
675.831	190
685.571	198
695.299	184
705.014	232
714.716	226
724.406	318
734.082	278
743.746	398
753.398	412
763.037	478
772.664	444
782.278	450
791.879	662
801.467	648
811.044	406
820.608	304
830.16	278
839.699	356
849.226	362
858.741	300
868.243	308
877.731	302
887.209	284
896.674	304
906.128	352
915.569	322
924.997	258
934.414	278
943.818	282
953.211	294
962.59	292
971.958	350
981.314	482
990.659	1198
999.99	4234
1009.31	1620
1018.62	480
1027.91	1180
1037.2	1446
1046.47	498
1055.73	414
1064.98	442
1074.22	446
1083.44	446
1092.65	438
1101.86	438
1111.05	366
1120.22	342
1129.39	294
1138.54	310
1147.69	420
1156.82	992
1165.94	552
1175.05	644
1184.14	1200
1193.23	1158
1202.3	1186
1211.36	750
1220.41	516
1229.45	448
1238.48	410
1247.5	394
1256.5	358
1265.49	374
1274.48	374
1283.45	372
1292.41	386
1301.36	440
1310.29	450
1319.22	470
1328.13	558
1337.04	538
1345.93	420
1354.81	410
1363.68	400
1372.54	418
1381.38	366
1390.22	304
1399.05	300
1407.86	302
1416.66	292
1425.46	284
1434.24	366
1443.01	516
1451.77	626
1460.52	406
1469.25	304
1477.98	302
1486.7	296
1495.4	324
1504.1	294
1512.78	282
1521.45	308
1530.11	288
1538.76	304
1547.41	318
1556.03	320
1564.65	342
1573.26	396
1581.86	844
1590.45	584
1599.02	1266
1607.59	1290
1616.14	502
1624.69	374
1633.22	358
1641.75	354
1650.26	380
1658.76	328
1667.26	310
1675.74	312
1684.21	306
1692.67	308
1701.12	320
1709.56	294
1717.99	280
1726.41	314
1734.82	296
1743.22	310
1751.61	318
1759.99	300
1768.36	290
1776.71	296
1785.06	298
1793.4	296
1801.73	306
1810.04	312
1818.35	338
1826.65	324
1834.94	302
1843.21	316
1851.48	316
1859.74	310
1867.98	298
1876.22	290
1884.45	328
1892.67	324
1900.87	326
1909.07	320
1917.26	324
1925.43	326
1933.6	312
1941.76	330
1949.91	342
1958.05	344
1966.17	330
1974.29	326
1982.4	340
1990.5	322
1998.59	316
2006.67	332
2014.74	334
2022.8	336
2030.85	352
2038.89	322
2046.92	342
2054.94	346
2062.95	338
2070.96	360
2078.95	348
2086.93	346
2094.91	336
2102.87	358
2110.83	338
2118.77	358
2126.71	362
2134.63	342
2142.55	336
2150.46	336
2158.35	346
2166.24	348
2174.12	356
2181.99	350
2189.85	352
2197.7	356
2205.55	344
2213.38	342
2221.2	350
2229.02	348
2236.82	354
2244.62	352
2252.4	350
2260.18	354
2267.95	360
2275.71	370
2283.46	366
2291.2	366
2298.93	362
2306.65	348
2314.37	368
2322.07	352
2329.77	374
2337.45	348
2345.13	370
2352.8	364
2360.46	362
2368.11	370
2375.75	364
2383.38	350
2391.01	354
2398.62	352
2406.23	376
2413.82	364
2421.41	346
2428.99	360
2436.56	392
2444.12	380
2449.79	382

File: ps-ppo-7jan25-1,0000-map3_Y06_X00.txt
182.393	1032
192.79	956
203.174	982
213.542	1042
223.897	1080
234.238	848
244.566	544
254.878	400
265.178	356
275.463	346
285.734	310
295.992	258
306.236	242
316.467	246
326.684	236
336.887	236
347.075	238
357.251	230
367.413	238
377.562	262
387.697	282
397.819	290
407.926	356
418.02	310
428.101	250
438.169	232
448.223	234
458.264	196
468.291	190
478.306	196
488.307	198
498.294	190
508.269	222
518.23	178
528.177	224
538.113	252
548.034	282
557.942	268
567.838	264
577.72	246
587.589	228
597.446	226
607.289	264
617.119	438
626.936	564
636.741	244
646.533	192
656.313	178
666.078	188
675.831	168
685.571	184
695.299	184
705.014	230
714.716	228
724.406	306
734.082	288
743.746	378
753.398	448
763.037	494
772.664	436
782.278	472
791.879	658
801.467	642
811.044	412
820.608	298
830.16	274
839.699	362
849.226	342
858.741	302
868.243	288
877.731	290
887.209	276
896.674	286
906.128	356
915.569	318
924.997	280
934.414	266
943.818	280
953.211	266
962.59	310
971.958	346
981.314	450
990.659	1170
999.99	4170
1009.31	1574
1018.62	448
1027.91	1192
1037.2	1420
1046.47	506
1055.73	412
1064.98	426
1074.22	446
1083.44	436
1092.65	408
1101.86	432
1111.05	340
1120.22	334
1129.39	282
1138.54	312
1147.69	416
1156.82	990
1165.94	524
1175.05	616
1184.14	1242
1193.23	1114
1202.3	1170
1211.36	738
1220.41	476
1229.45	458
1238.48	382
1247.5	382
1256.5	352
1265.49	378
1274.48	362
1283.45	382
1292.41	366
1301.36	428
1310.29	430
1319.22	480
1328.13	522
1337.04	490
1345.93	398
1354.81	376
1363.68	392
1372.54	374
1381.38	348
1390.22	292
1399.05	282
1407.86	266
1416.66	280
1425.46	288
1434.24	336
1443.01	494
1451.77	644
1460.52	416
1469.25	294
1477.98	282
1486.7	274
1495.4	304
1504.1	276
1512.78	278
1521.45	286
1530.11	264
1538.76	290
1547.41	288
1556.03	288
1564.65	304
1573.26	388
1581.86	822
1590.45	624
1599.02	1236
1607.59	1326
1616.14	502
1624.69	388
1633.22	348
1641.75	352
1650.26	366
1658.76	322
1667.26	304
1675.74	306
1684.21	304
1692.67	302
1701.12	320
1709.56	310
1717.99	298
1726.41	292
1734.82	308
1743.22	312
1751.61	278
1759.99	302
1768.36	302
1776.71	296
1785.06	304
1793.4	294
1801.73	304
1810.04	304
1818.35	330
1826.65	294
1834.94	316
1843.21	304
1851.48	308
1859.74	324
1867.98	306
1876.22	320
1884.45	318
1892.67	316
1900.87	324
1909.07	330
1917.26	328
1925.43	334
1933.6	322
1941.76	314
1949.91	346
1958.05	326
1966.17	324
1974.29	328
1982.4	324
1990.5	326
1998.59	326
2006.67	322
2014.74	358
2022.8	328
2030.85	342
2038.89	344
2046.92	354
2054.94	344
2062.95	348
2070.96	348
2078.95	320
2086.93	340
2094.91	326
2102.87	348
2110.83	350
2118.77	326
2126.71	350
2134.63	348
2142.55	344
2150.46	360
2158.35	346
2166.24	362
2174.12	352
2181.99	348
2189.85	356
2197.7	362
2205.55	356
2213.38	348
2221.2	356
2229.02	332
2236.82	348
2244.62	356
2252.4	354
2260.18	352
2267.95	346
2275.71	340
2283.46	346
2291.2	356
2298.93	354
2306.65	344
2314.37	366
2322.07	358
2329.77	366
2337.45	374
2345.13	354
2352.8	348
2360.46	370
2368.11	344
2375.75	360
2383.38	364
2391.01	366
2398.62	358
2406.23	364
2413.82	378
2421.41	366
2428.99	374
2436.56	374
2444.12	374
2449.79	376

File: ps-ppo-7jan25-1,0000-map3_Y06_X01.txt
182.393	1080
192.79	962
203.174	990
213.542	1054
223.897	1092
234.238	842
244.566	512
254.878	414
265.178	344
275.463	342
285.734	290
295.992	272
306.236	260
316.467	258
326.684	252
336.887	262
347.075	238
357.251	238
367.413	246
377.562	264
387.697	276
397.819	298
407.926	358
418.02	304
428.101	254
438.169	248
448.223	222
458.264	212
468.291	208
478.306	210
488.307	196
498.294	204
508.269	222
518.23	202
528.177	232
538.113	258
548.034	274
557.942	276
567.838	256
577.72	250
587.589	244
597.446	238
607.289	304
617.119	452
626.936	562
636.741	236
646.533	208
656.313	214
666.078	202
675.831	206
685.571	206
695.299	210
705.014	246
714.716	260
724.406	356
734.082	294
743.746	434
753.398	466
763.037	490
772.664	460
782.278	472
791.879	712
801.467	668
811.044	414
820.608	334
830.16	296
839.699	358
849.226	360
858.741	330
868.243	346
877.731	330
887.209	302
896.674	340
906.128	376
915.569	334
924.997	280
934.414	288
943.818	316
953.211	300
962.59	338
971.958	352
981.314	468
990.659	1176
999.99	4262
1009.31	1610
1018.62	486
1027.91	1198
1037.2	1416
1046.47	480
1055.73	402
1064.98	448
1074.22	474
1083.44	452
1092.65	428
1101.86	436
1111.05	346
1120.22	332
1129.39	296
1138.54	294
1147.69	426
1156.82	984
1165.94	534
1175.05	650
1184.14	1234
1193.23	1164
1202.3	1188
1211.36	744
1220.41	520
1229.45	430
1238.48	390
1247.5	376
1256.5	358
1265.49	358
1274.48	352
1283.45	366
1292.41	380
1301.36	384
1310.29	416
1319.22	464
1328.13	504
1337.04	506
1345.93	406
1354.81	366
1363.68	346
1372.54	372
1381.38	368
1390.22	272
1399.05	268
1407.86	270
1416.66	270
1425.46	258
1434.24	332
1443.01	494
1451.77	612
1460.52	400
1469.25	298
1477.98	286
1486.7	258
1495.4	294
1504.1	256
1512.78	264
1521.45	268
1530.11	292
1538.76	292
1547.41	284
1556.03	278
1564.65	310
1573.26	368
1581.86	810
1590.45	594
1599.02	1226
1607.59	1284
1616.14	482
1624.69	368
1633.22	336
1641.75	330
1650.26	338
1658.76	312
1667.26	308
1675.74	320
1684.21	334
1692.67	308
1701.12	300
1709.56	302
1717.99	298
1726.41	286
1734.82	304
1743.22	272
1751.61	284
1759.99	294
1768.36	304
1776.71	282
1785.06	292
1793.4	314
1801.73	296
1810.04	312
1818.35	308
1826.65	320
1834.94	294
1843.21	290
1851.48	312
1859.74	300
1867.98	306
1876.22	310
1884.45	310
1892.67	326
1900.87	328
1909.07	316
1917.26	342
1925.43	332
1933.6	334
1941.76	310
1949.91	318
1958.05	332
1966.17	334
1974.29	338
1982.4	328
1990.5	318
1998.59	300
2006.67	336
2014.74	304
2022.8	338
2030.85	330
2038.89	328
2046.92	332
2054.94	330
2062.95	326
2070.96	330
2078.95	322
2086.93	326
2094.91	320
2102.87	354
2110.83	314
2118.77	350
2126.71	352
2134.63	346
2142.55	336
2150.46	346
2158.35	318
2166.24	360
2174.12	340
2181.99	346
2189.85	354
2197.7	354
2205.55	322
2213.38	332
2221.2	344
2229.02	334
2236.82	340
2244.62	332
2252.4	346
2260.18	348
2267.95	346
2275.71	348
2283.46	316
2291.2	356
2298.93	340
2306.65	354
2314.37	338
2322.07	344
2329.77	362
2337.45	350
2345.13	340
2352.8	334
2360.46	362
2368.11	352
2375.75	370
2383.38	354
2391.01	332
2398.62	358
2406.23	362
2413.82	342
2421.41	342
2428.99	358
2436.56	364
2444.12	366
2449.79	368

File: ps-ppo-7jan25-1,0000-map3_Y06_X02.txt
182.393	1008
192.79	948
203.174	964
213.542	1052
223.897	1058
234.238	820
244.566	510
254.878	402
265.178	356
275.463	336
285.734	296
295.992	250
306.236	246
316.467	234
326.684	236
336.887	242
347.075	228
357.251	216
367.413	206
377.562	228
387.697	264
397.819	274
407.926	342
418.02	284
428.101	234
438.169	226
448.223	212
458.264	168
468.291	174
478.306	172
488.307	176
498.294	192
508.269	184
518.23	184
528.177	230
538.113	242
548.034	256
557.942	246
567.838	240
577.72	236
587.589	190
597.446	212
607.289	260
617.119	428
626.936	536
636.741	228
646.533	178
656.313	160
666.078	166
675.831	166
685.571	172
695.299	174
705.014	210
714.716	206
724.406	294
734.082	266
743.746	380
753.398	406
763.037	470
772.664	436
782.278	460
791.879	642
801.467	626
811.044	382
820.608	284
830.16	258
839.699	320
849.226	330
858.741	292
868.243	284
877.731	302
887.209	282
896.674	278
906.128	352
915.569	294
924.997	250
934.414	250
943.818	258
953.211	246
962.59	316
971.958	336
981.314	488
990.659	1176
999.99	4196
1009.31	1588
1018.62	466
1027.91	1180
1037.2	1408
1046.47	486
1055.73	376
1064.98	422
1074.22	436
1083.44	436
1092.65	422
1101.86	414
1111.05	370
1120.22	308
1129.39	288
1138.54	292
1147.69	416
1156.82	958
1165.94	516
1175.05	642
1184.14	1176
1193.23	1124
1202.3	1146
1211.36	706
1220.41	488
1229.45	436
1238.48	386
1247.5	352
1256.5	334
1265.49	344
1274.48	338
1283.45	334
1292.41	392
1301.36	402
1310.29	406
1319.22	462
1328.13	538
1337.04	490
1345.93	400
1354.81	358
1363.68	390
1372.54	354
1381.38	364
1390.22	276
1399.05	266
1407.86	258
1416.66	260
1425.46	268
1434.24	308
1443.01	498
1451.77	610
1460.52	390
1469.25	252
1477.98	264
1486.7	272
1495.4	302
1504.1	240
1512.78	250
1521.45	270
1530.11	288
1538.76	268
1547.41	280
1556.03	290
1564.65	312
1573.26	356
1581.86	792
1590.45	568
1599.02	1232
1607.59	1270
1616.14	484
1624.69	350
1633.22	330
1641.75	344
1650.26	348
1658.76	282
1667.26	272
1675.74	278
1684.21	288
1692.67	294
1701.12	274
1709.56	282
1717.99	266
1726.41	262
1734.82	274
1743.22	266
1751.61	286
1759.99	280
1768.36	260
1776.71	288
1785.06	272
1793.4	266
1801.73	292
1810.04	278
1818.35	290
1826.65	286
1834.94	290
1843.21	288
1851.48	304
1859.74	272
1867.98	280
1876.22	284
1884.45	304
1892.67	274
1900.87	286
1909.07	294
1917.26	312
1925.43	300
1933.6	308
1941.76	296
1949.91	308
1958.05	300
1966.17	308
1974.29	300
1982.4	318
1990.5	282
1998.59	316
2006.67	306
2014.74	310
2022.8	314
2030.85	296
2038.89	314
2046.92	306
2054.94	292
2062.95	314
2070.96	294
2078.95	320
2086.93	326
2094.91	298
2102.87	300
2110.83	312
2118.77	322
2126.71	316
2134.63	312
2142.55	312
2150.46	320
2158.35	314
2166.24	310
2174.12	344
2181.99	330
2189.85	342
2197.7	306
2205.55	326
2213.38	324
2221.2	328
2229.02	316
2236.82	340
2244.62	346
2252.4	320
2260.18	320
2267.95	336
2275.71	338
2283.46	322
2291.2	324
2298.93	342
2306.65	344
2314.37	340
2322.07	356
2329.77	326
2337.45	334
2345.13	348
2352.8	338
2360.46	358
2368.11	326
2375.75	334
2383.38	338
2391.01	342
2398.62	358
2406.23	344
2413.82	340
2421.41	348
2428.99	342
2436.56	340
2444.12	354
2449.79	370

File: ps-ppo-7jan25-1,0000-map3_Y06_X03.txt
182.393	1044
192.79	962
203.174	964
213.542	1054
223.897	1088
234.238	848
244.566	540
254.878	400
265.178	362
275.463	346
285.734	314
295.992	274
306.236	252
316.467	288
326.684	262
336.887	256
347.075	252
357.251	228
367.413	242
377.562	264
387.697	268
397.819	326
407.926	360
418.02	298
428.101	284
438.169	258
448.223	220
458.264	210
468.291	198
478.306	208
488.307	208
498.294	202
508.269	206
518.23	230
528.177	246
538.113	266
548.034	290
557.942	286
567.838	280
577.72	282
587.589	242
597.446	240
607.289	282
617.119	448
626.936	562
636.741	230
646.533	206
656.313	202
666.078	196
675.831	196
685.571	192
695.299	206
705.014	242
714.716	244
724.406	316
734.082	290
743.746	414
753.398	450
763.037	486
772.664	442
782.278	476
791.879	666
801.467	656
811.044	408
820.608	334
830.16	276
839.699	366
849.226	366
858.741	324
868.243	308
877.731	300
887.209	292
896.674	290
906.128	376
915.569	342
924.997	268
934.414	278
943.818	288
953.211	292
962.59	328
971.958	332
981.314	472
990.659	1186
999.99	4198
1009.31	1590
1018.62	460
1027.91	1196
1037.2	1432
1046.47	512
1055.73	424
1064.98	418
1074.22	454
1083.44	446
1092.65	436
1101.86	444
1111.05	346
1120.22	318
1129.39	286
1138.54	314
1147.69	424
1156.82	1024
1165.94	526
1175.05	644
1184.14	1216
1193.23	1118
1202.3	1160
1211.36	736
1220.41	490
1229.45	450
1238.48	376
1247.5	372
1256.5	350
1265.49	364
1274.48	352
1283.45	374
1292.41	376
1301.36	416
1310.29	442
1319.22	466
1328.13	548
1337.04	518
1345.93	396
1354.81	374
1363.68	388
1372.54	398
1381.38	356
1390.22	290
1399.05	292
1407.86	288
1416.66	272
1425.46	282
1434.24	340
1443.01	480
1451.77	584
1460.52	394
1469.25	296
1477.98	294
1486.7	292
1495.4	296
1504.1	282
1512.78	266
1521.45	278
1530.11	288
1538.76	286
1547.41	294
1556.03	276
1564.65	326
1573.26	392
1581.86	822
1590.45	618
1599.02	1236
1607.59	1304
1616.14	508
1624.69	362
1633.22	326
1641.75	326
1650.26	346
1658.76	282
1667.26	304
1675.74	312
1684.21	302
1692.67	306
1701.12	292
1709.56	298
1717.99	272
1726.41	284
1734.82	274
1743.22	294
1751.61	302
1759.99	280
1768.36	282
1776.71	290
1785.06	284
1793.4	306
1801.73	304
1810.04	300
1818.35	320
1826.65	304
1834.94	282
1843.21	310
1851.48	290
1859.74	304
1867.98	304
1876.22	312
1884.45	290
1892.67	296
1900.87	318
1909.07	312
1917.26	300
1925.43	322
1933.6	314
1941.76	324
1949.91	326
1958.05	330
1966.17	312
1974.29	308
1982.4	312
1990.5	312
1998.59	344
2006.67	316
2014.74	318
2022.8	318
2030.85	336
2038.89	334
2046.92	330
2054.94	338
2062.95	328
2070.96	322
2078.95	310
2086.93	320
2094.91	344
2102.87	326
2110.83	348
2118.77	346
2126.71	344
2134.63	338
2142.55	342
2150.46	334
2158.35	348
2166.24	350
2174.12	322
2181.99	334
2189.85	340
2197.7	330
2205.55	332
2213.38	344
2221.2	348
2229.02	350
2236.82	358
2244.62	330
2252.4	336
2260.18	346
2267.95	348
2275.71	338
2283.46	338
2291.2	352
2298.93	348
2306.65	330
2314.37	358
2322.07	352
2329.77	372
2337.45	358
2345.13	378
2352.8	350
2360.46	362
2368.11	350
2375.75	352
2383.38	344
2391.01	354
2398.62	364
2406.23	352
2413.82	344
2421.41	334
2428.99	346
2436.56	372
2444.12	358
2449.79	360