Folder: NRC_SU25_Spectral_Classification/Jesse_Dataset_v2/Pure Raman/Polystyrene/633nm (part 4)

File: ps-ppo-7jan25-1,0000-map3_Y04_X07.txt
182.393	1024
192.79	954
203.174	946
213.542	1032
223.897	1070
234.238	854
244.566	524
254.878	406
265.178	342
275.463	344
285.734	306
295.992	244
306.236	244
316.467	236
326.684	238
336.887	248
347.075	236
357.251	226
367.413	236
377.562	242
387.697	278
397.819	280
407.926	344
418.02	298
428.101	258
438.169	230
448.223	224
458.264	184
468.291	200
478.306	188
488.307	186
498.294	186
508.269	212
518.23	202
528.177	234
538.113	266
548.034	280
557.942	272
567.838	268
577.72	264
587.589	228
597.446	220
607.289	280
617.119	454
626.936	536
636.741	234
646.533	192
656.313	182
666.078	182
675.831	196
685.571	204
695.299	210
705.014	246
714.716	248
724.406	324
734.082	294
743.746	394
753.398	462
763.037	508
772.664	452
782.278	478
791.879	668
801.467	646
811.044	408
820.608	314
830.16	288
839.699	368
849.226	352
858.741	308
868.243	312
877.731	326
887.209	286
896.674	306
906.128	398
915.569	330
924.997	280
934.414	286
943.818	280
953.211	288
962.59	330
971.958	350
981.314	480
990.659	1228
999.99	4202
1009.31	1566
1018.62	472
1027.91	1206
1037.2	1470
1046.47	478
1055.73	400
1064.98	438
1074.22	440
1083.44	428
1092.65	418
1101.86	440
1111.05	340
1120.22	324
1129.39	284
1138.54	292
1147.69	398
1156.82	940
1165.94	528
1175.05	626
1184.14	1214
1193.23	1136
1202.3	1166
1211.36	714
1220.41	486
1229.45	438
1238.48	368
1247.5	372
1256.5	370
1265.49	342
1274.48	336
1283.45	346
1292.41	372
1301.36	406
1310.29	432
1319.22	488
1328.13	538
1337.04	486
1345.93	384
1354.81	358
1363.68	364
1372.54	366
1381.38	348
1390.22	264
1399.05	272
1407.86	258
1416.66	258
1425.46	268
1434.24	320
1443.01	502
1451.77	606
1460.52	390
1469.25	280
1477.98	284
1486.7	266
1495.4	292
1504.1	270
1512.78	274
1521.45	276
1530.11	268
1538.76	246
1547.41	262
1556.03	290
1564.65	298
1573.26	374
1581.86	776
1590.45	582
1599.02	1214
1607.59	1268
1616.14	474
1624.69	362
1633.22	320
1641.75	322
1650.26	332
1658.76	282
1667.26	272
1675.74	294
1684.21	270
1692.67	280
1701.12	286
1709.56	278
1717.99	262
1726.41	266
1734.82	286
1743.22	284
1751.61	286
1759.99	294
1768.36	266
1776.71	272
1785.06	292
1793.4	284
1801.73	288
1810.04	274
1818.35	300
1826.65	324
1834.94	284
1843.21	270
1851.48	276
1859.74	282
1867.98	288
1876.22	290
1884.45	292
1892.67	284
1900.87	306
1909.07	308
1917.26	290
1925.43	306
1933.6	310
1941.76	292
1949.91	306
1958.05	298
1966.17	304
1974.29	322
1982.4	302
1990.5	310
1998.59	320
2006.67	314
2014.74	318
2022.8	308
2030.85	334
2038.89	320
2046.92	338
2054.94	320
2062.95	310
2070.96	324
2078.95	332
2086.93	318
2094.91	330
2102.87	318
2110.83	326
2118.77	330
2126.71	326
2134.63	346
2142.55	332
2150.46	336
2158.35	326
2166.24	318
2174.12	326
2181.99	320
2189.85	336
2197.7	338
2205.55	338
2213.38	320
2221.2	336
2229.02	332
2236.82	352
2244.62	332
2252.4	340
2260.18	334
2267.95	348
2275.71	346
2283.46	358
2291.2	320
2298.93	350
2306.65	346
2314.37	366
2322.07	356
2329.77	356
2337.45	354
2345.13	354
2352.8	326
2360.46	346
2368.11	350
2375.75	364
2383.38	338
2391.01	352
2398.62	358
2406.23	354
2413.82	364
2421.41	360
2428.99	356
2436.56	364
2444.12	372
2449.79	370

File: ps-ppo-7jan25-1,0000-map3_Y04_X08.txt
182.393	1034
192.79	900
203.174	920
213.542	1004
223.897	1000
234.238	840
244.566	510
254.878	350
265.178	312
275.463	294
285.734	258
295.992	222
306.236	202
316.467	232
326.684	218
336.887	224
347.075	198
357.251	198
367.413	198
377.562	200
387.697	236
397.819	268
407.926	332
418.02	254
428.101	226
438.169	206
448.223	184
458.264	172
468.291	158
478.306	160
488.307	148
498.294	170
508.269	168
518.23	178
528.177	194
538.113	224
548.034	248
557.942	210
567.838	242
577.72	226
587.589	198
597.446	204
607.289	240
617.119	406
626.936	508
636.741	194
646.533	156
656.313	150
666.078	148
675.831	152
685.571	158
695.299	152
705.014	208
714.716	182
724.406	254
734.082	256
743.746	354
753.398	396
763.037	440
772.664	408
782.278	434
791.879	600
801.467	588
811.044	378
820.608	258
830.16	256
839.699	316
849.226	334
858.741	266
868.243	262
877.731	286
887.209	252
896.674	274
906.128	314
915.569	292
924.997	236
934.414	218
943.818	226
953.211	234
962.59	278
971.958	302
981.314	416
990.659	1144
999.99	4172
1009.31	1528
1018.62	452
1027.91	1154
1037.2	1398
1046.47	430
1055.73	390
1064.98	396
1074.22	408
1083.44	410
1092.65	408
1101.86	404
1111.05	334
1120.22	288
1129.39	246
1138.54	282
1147.69	366
1156.82	980
1165.94	504
1175.05	602
1184.14	1196
1193.23	1114
1202.3	1118
1211.36	690
1220.41	466
1229.45	400
1238.48	334
1247.5	334
1256.5	342
1265.49	340
1274.48	322
1283.45	338
1292.41	358
1301.36	382
1310.29	412
1319.22	474
1328.13	516
1337.04	478
1345.93	380
1354.81	340
1363.68	350
1372.54	372
1381.38	342
1390.22	266
1399.05	268
1407.86	268
1416.66	264
1425.46	252
1434.24	328
1443.01	482
1451.77	578
1460.52	352
1469.25	272
1477.98	280
1486.7	258
1495.4	296
1504.1	250
1512.78	256
1521.45	262
1530.11	258
1538.76	280
1547.41	264
1556.03	282
1564.65	312
1573.26	370
1581.86	800
1590.45	590
1599.02	1228
1607.59	1258
1616.14	470
1624.69	362
1633.22	322
1641.75	330
1650.26	338
1658.76	312
1667.26	296
1675.74	276
1684.21	288
1692.67	292
1701.12	280
1709.56	288
1717.99	276
1726.41	292
1734.82	290
1743.22	280
1751.61	294
1759.99	290
1768.36	288
1776.71	288
1785.06	292
1793.4	294
1801.73	304
1810.04	292
1818.35	292
1826.65	288
1834.94	304
1843.21	304
1851.48	272
1859.74	312
1867.98	302
1876.22	292
1884.45	298
1892.67	302
1900.87	312
1909.07	320
1917.26	310
1925.43	310
1933.6	338
1941.76	310
1949.91	310
1958.05	320
1966.17	318
1974.29	312
1982.4	322
1990.5	304
1998.59	304
2006.67	320
2014.74	328
2022.8	314
2030.85	308
2038.89	308
2046.92	330
2054.94	314
2062.95	324
2070.96	328
2078.95	316
2086.93	316
2094.91	326
2102.87	320
2110.83	324
2118.77	326
2126.71	334
2134.63	336
2142.55	348
2150.46	322
2158.35	314
2166.24	328
2174.12	354
2181.99	342
2189.85	348
2197.7	314
2205.55	342
2213.38	338
2221.2	352
2229.02	346
2236.82	320
2244.62	324
2252.4	334
2260.18	330
2267.95	342
2275.71	322
2283.46	338
2291.2	336
2298.93	346
2306.65	350
2314.37	354
2322.07	352
2329.77	334
2337.45	338
2345.13	362
2352.8	360
2360.46	338
2368.11	338
2375.75	348
2383.38	356
2391.01	342
2398.62	338
2406.23	356
2413.82	360
2421.41	336
2428.99	360
2436.56	366
2444.12	358
2449.79	360

File: ps-ppo-7jan25-1,0000-map3_Y04_X09.txt
182.393	1030
192.79	942
203.174	932
213.542	1030
223.897	1086
234.238	834
244.566	532
254.878	380
265.178	340
275.463	328
285.734	298
295.992	250
306.236	236
316.467	254
326.684	250
336.887	240
347.075	230
357.251	222
367.413	228
377.562	238
387.697	258
397.819	302
407.926	342
418.02	298
428.101	246
438.169	228
448.223	218
458.264	206
468.291	190
478.306	184
488.307	176
498.294	174
508.269	204
518.23	196
528.177	214
538.113	264
548.034	258
557.942	266
567.838	250
577.72	266
587.589	214
597.446	212
607.289	274
617.119	420
626.936	532
636.741	246
646.533	182
656.313	192
666.078	164
675.831	170
685.571	168
695.299	184
705.014	210
714.716	206
724.406	296
734.082	300
743.746	374
753.398	420
763.037	484
772.664	414
782.278	458
791.879	638
801.467	634
811.044	408
820.608	316
830.16	270
839.699	342
849.226	346
858.741	294
868.243	312
877.731	296
887.209	286
896.674	296
906.128	362
915.569	308
924.997	248
934.414	274
943.818	282
953.211	272
962.59	324
971.958	338
981.314	452
990.659	1192
999.99	4272
1009.31	1582
1018.62	478
1027.91	1176
1037.2	1470
1046.47	504
1055.73	426
1064.98	430
1074.22	466
1083.44	456
1092.65	416
1101.86	456
1111.05	368
1120.22	320
1129.39	294
1138.54	320
1147.69	432
1156.82	1006
1165.94	524
1175.05	648
1184.14	1214
1193.23	1106
1202.3	1184
1211.36	708
1220.41	506
1229.45	452
1238.48	392
1247.5	372
1256.5	366
1265.49	374
1274.48	366
1283.45	372
1292.41	368
1301.36	416
1310.29	414
1319.22	464
1328.13	566
1337.04	512
1345.93	418
1354.81	388
1363.68	384
1372.54	408
1381.38	364
1390.22	300
1399.05	310
1407.86	280
1416.66	268
1425.46	270
1434.24	330
1443.01	488
1451.77	600
1460.52	428
1469.25	280
1477.98	302
1486.7	312
1495.4	334
1504.1	296
1512.78	284
1521.45	284
1530.11	282
1538.76	282
1547.41	308
1556.03	328
1564.65	326
1573.26	398
1581.86	850
1590.45	648
1599.02	1232
1607.59	1344
1616.14	490
1624.69	376
1633.22	338
1641.75	360
1650.26	352
1658.76	314
1667.26	328
1675.74	308
1684.21	302
1692.67	306
1701.12	294
1709.56	292
1717.99	318
1726.41	292
1734.82	290
1743.22	304
1751.61	304
1759.99	296
1768.36	294
1776.71	306
1785.06	306
1793.4	300
1801.73	304
1810.04	294
1818.35	310
1826.65	304
1834.94	288
1843.21	312
1851.48	312
1859.74	292
1867.98	312
1876.22	310
1884.45	292
1892.67	290
1900.87	322
1909.07	320
1917.26	308
1925.43	312
1933.6	346
1941.76	338
1949.91	336
1958.05	322
1966.17	328
1974.29	318
1982.4	330
1990.5	294
1998.59	300
2006.67	324
2014.74	320
2022.8	306
2030.85	328
2038.89	326
2046.92	328
2054.94	310
2062.95	340
2070.96	310
2078.95	332
2086.93	324
2094.91	322
2102.87	314
2110.83	342
2118.77	346
2126.71	340
2134.63	346
2142.55	326
2150.46	340
2158.35	350
2166.24	340
2174.12	380
2181.99	334
2189.85	340
2197.7	346
2205.55	336
2213.38	374
2221.2	342
2229.02	344
2236.82	358
2244.62	360
2252.4	348
2260.18	352
2267.95	346
2275.71	352
2283.46	358
2291.2	360
2298.93	352
2306.65	364
2314.37	334
2322.07	356
2329.77	346
2337.45	336
2345.13	350
2352.8	374
2360.46	362
2368.11	364
2375.75	370
2383.38	356
2391.01	356
2398.62	342
2406.23	348
2413.82	358
2421.41	370
2428.99	372
2436.56	358
2444.12	366
2449.79	352

File: ps-ppo-7jan25-1,0000-map3_Y04_X10.txt
182.393	1026
192.79	932
203.174	920
213.542	1044
223.897	1086
234.238	818
244.566	512
254.878	394
265.178	360
275.463	310
285.734	278
295.992	240
306.236	238
316.467	244
326.684	240
336.887	234
347.075	238
357.251	216
367.413	220
377.562	236
387.697	258
397.819	274
407.926	350
418.02	292
428.101	250
438.169	234
448.223	210
458.264	196
468.291	182
478.306	170
488.307	192
498.294	180
508.269	212
518.23	186
528.177	218
538.113	246
548.034	242
557.942	246
567.838	244
577.72	272
587.589	202
597.446	224
607.289	260
617.119	426
626.936	548
636.741	240
646.533	184
656.313	170
666.078	178
675.831	170
685.571	168
695.299	162
705.014	224
714.716	220
724.406	272
734.082	286
743.746	394
753.398	440
763.037	492
772.664	426
782.278	452
791.879	636
801.467	630
811.044	402
820.608	284
830.16	262
839.699	348
849.226	354
858.741	296
868.243	296
877.731	284
887.209	260
896.674	284
906.128	376
915.569	306
924.997	252
934.414	232
943.818	260
953.211	262
962.59	308
971.958	332
981.314	436
990.659	1158
999.99	4172
1009.31	1542
1018.62	452
1027.91	1216
1037.2	1422
1046.47	480
1055.73	382
1064.98	416
1074.22	442
1083.44	436
1092.65	406
1101.86	418
1111.05	352
1120.22	314
1129.39	282
1138.54	282
1147.69	398
1156.82	950
1165.94	516
1175.05	638
1184.14	1172
1193.23	1096
1202.3	1152
1211.36	724
1220.41	454
1229.45	422
1238.48	370
1247.5	342
1256.5	334
1265.49	342
1274.48	336
1283.45	356
1292.41	372
1301.36	396
1310.29	432
1319.22	456
1328.13	530
1337.04	494
1345.93	396
1354.81	372
1363.68	398
1372.54	382
1381.38	348
1390.22	280
1399.05	274
1407.86	270
1416.66	258
1425.46	264
1434.24	330
1443.01	498
1451.77	582
1460.52	380
1469.25	288
1477.98	272
1486.7	258
1495.4	294
1504.1	270
1512.78	266
1521.45	262
1530.11	274
1538.76	260
1547.41	270
1556.03	282
1564.65	304
1573.26	380
1581.86	816
1590.45	610
1599.02	1228
1607.59	1318
1616.14	466
1624.69	366
1633.22	322
1641.75	332
1650.26	346
1658.76	284
1667.26	284
1675.74	292
1684.21	298
1692.67	284
1701.12	282
1709.56	278
1717.99	270
1726.41	282
1734.82	268
1743.22	276
1751.61	268
1759.99	294
1768.36	288
1776.71	272
1785.06	290
1793.4	286
1801.73	286
1810.04	296
1818.35	290
1826.65	298
1834.94	282
1843.21	280
1851.48	290
1859.74	284
1867.98	288
1876.22	300
1884.45	292
1892.67	284
1900.87	300
1909.07	314
1917.26	304
1925.43	298
1933.6	314
1941.76	318
1949.91	300
1958.05	314
1966.17	294
1974.29	306
1982.4	302
1990.5	314
1998.59	320
2006.67	304
2014.74	320
2022.8	316
2030.85	308
2038.89	326
2046.92	306
2054.94	310
2062.95	336
2070.96	324
2078.95	320
2086.93	322
2094.91	344
2102.87	316
2110.83	322
2118.77	306
2126.71	352
2134.63	328
2142.55	336
2150.46	326
2158.35	340
2166.24	332
2174.12	320
2181.99	338
2189.85	330
2197.7	338
2205.55	338
2213.38	330
2221.2	332
2229.02	332
2236.82	324
2244.62	348
2252.4	346
2260.18	356
2267.95	340
2275.71	336
2283.46	334
2291.2	344
2298.93	336
2306.65	334
2314.37	348
2322.07	350
2329.77	326
2337.45	364
2345.13	338
2352.8	352
2360.46	360
2368.11	354
2375.75	350
2383.38	344
2391.01	362
2398.62	338
2406.23	364
2413.82	340
2421.41	356
2428.99	340
2436.56	368
2444.12	360
2449.79	374

File: ps-ppo-7jan25-1,0000-map3_Y05_X00.txt
182.393	1016
192.79	980
203.174	964
213.542	1076
223.897	1082
234.238	860
244.566	550
254.878	386
265.178	338
275.463	352
285.734	294
295.992	244
306.236	244
316.467	258
326.684	274
336.887	238
347.075	238
357.251	228
367.413	236
377.562	238
387.697	282
397.819	282
407.926	358
418.02	296
428.101	260
438.169	248
448.223	208
458.264	200
468.291	194
478.306	192
488.307	192
498.294	198
508.269	216
518.23	208
528.177	242
538.113	272
548.034	268
557.942	264
567.838	258
577.72	254
587.589	228
597.446	230
607.289	300
617.119	420
626.936	572
636.741	230
646.533	192
656.313	182
666.078	164
675.831	196
685.571	178
695.299	194
705.014	224
714.716	226
724.406	318
734.082	300
743.746	412
753.398	434
763.037	502
772.664	466
782.278	476
791.879	674
801.467	654
811.044	406
820.608	314
830.16	280
839.699	378
849.226	372
858.741	310
868.243	318
877.731	312
887.209	320
896.674	310
906.128	388
915.569	332
924.997	280
934.414	278
943.818	284
953.211	284
962.59	332
971.958	368
981.314	466
990.659	1226
999.99	4232
1009.31	1554
1018.62	480
1027.91	1216
1037.2	1430
1046.47	530
1055.73	428
1064.98	430
1074.22	468
1083.44	430
1092.65	444
1101.86	454
1111.05	380
1120.22	324
1129.39	298
1138.54	326
1147.69	424
1156.82	1008
1165.94	532
1175.05	666
1184.14	1254
1193.23	1122
1202.3	1166
1211.36	762
1220.41	492
1229.45	442
1238.48	384
1247.5	398
1256.5	356
1265.49	356
1274.48	356
1283.45	362
1292.41	386
1301.36	408
1310.29	432
1319.22	502
1328.13	558
1337.04	526
1345.93	416
1354.81	378
1363.68	390
1372.54	396
1381.38	344
1390.22	304
1399.05	290
1407.86	298
1416.66	262
1425.46	296
1434.24	340
1443.01	512
1451.77	624
1460.52	392
1469.25	290
1477.98	304
1486.7	278
1495.4	306
1504.1	280
1512.78	288
1521.45	300
1530.11	262
1538.76	286
1547.41	296
1556.03	306
1564.65	316
1573.26	384
1581.86	824
1590.45	618
1599.02	1258
1607.59	1310
1616.14	490
1624.69	374
1633.22	346
1641.75	340
1650.26	364
1658.76	320
1667.26	302
1675.74	300
1684.21	302
1692.67	296
1701.12	298
1709.56	292
1717.99	286
1726.41	284
1734.82	302
1743.22	270
1751.61	284
1759.99	280
1768.36	288
1776.71	302
1785.06	280
1793.4	300
1801.73	270
1810.04	306
1818.35	294
1826.65	298
1834.94	292
1843.21	308
1851.48	302
1859.74	292
1867.98	304
1876.22	310
1884.45	306
1892.67	312
1900.87	302
1909.07	302
1917.26	330
1925.43	318
1933.6	316
1941.76	320
1949.91	338
1958.05	320
1966.17	308
1974.29	314
1982.4	334
1990.5	306
1998.59	322
2006.67	314
2014.74	312
2022.8	306
2030.85	322
2038.89	332
2046.92	330
2054.94	310
2062.95	334
2070.96	334
2078.95	324
2086.93	342
2094.91	318
2102.87	324
2110.83	318
2118.77	346
2126.71	320
2134.63	318
2142.55	350
2150.46	334
2158.35	324
2166.24	328
2174.12	326
2181.99	340
2189.85	318
2197.7	336
2205.55	332
2213.38	330
2221.2	340
2229.02	338
2236.82	344
2244.62	328
2252.4	336
2260.18	336
2267.95	344
2275.71	346
2283.46	334
2291.2	360
2298.93	342
2306.65	360
2314.37	352
2322.07	368
2329.77	352
2337.45	336
2345.13	352
2352.8	342
2360.46	354
2368.11	360
2375.75	342
2383.38	358
2391.01	328
2398.62	356
2406.23	356
2413.82	332
2421.41	350
2428.99	354
2436.56	362
2444.12	356
2449.79	366

File: ps-ppo-7jan25-1,0000-map3_Y05_X01.txt
182.393	998
192.79	942
203.174	946
213.542	1006
223.897	1044
234.238	774
244.566	496
254.878	370
265.178	334
275.463	296
285.734	278
295.992	238
306.236	222
316.467	226
326.684	220
336.887	222
347.075	210
357.251	198
367.413	220
377.562	216
387.697	246
397.819	280
407.926	326
418.02	268
428.101	220
438.169	206
448.223	198
458.264	178
468.291	172
478.306	158
488.307	140
498.294	170
508.269	164
518.23	176
528.177	194
538.113	228
548.034	232
557.942	242
567.838	232
577.72	226
587.589	200
597.446	194
607.289	242
617.119	398
626.936	518
636.741	220
646.533	170
656.313	164
666.078	158
675.831	160
685.571	156
695.299	170
705.014	202
714.716	200
724.406	276
734.082	250
743.746	362
753.398	376
763.037	470
772.664	408
782.278	432
791.879	644
801.467	610
811.044	364
820.608	270
830.16	246
839.699	340
849.226	328
858.741	286
868.243	282
877.731	282
887.209	228
896.674	270
906.128	328
915.569	280
924.997	244
934.414	258
943.818	246
953.211	260
962.59	300
971.958	324
981.314	446
990.659	1130
999.99	4216
1009.31	1556
1018.62	450
1027.91	1172
1037.2	1396
1046.47	462
1055.73	358
1064.98	396
1074.22	448
1083.44	430
1092.65	392
1101.86	394
1111.05	332
1120.22	294
1129.39	266
1138.54	276
1147.69	410
1156.82	954
1165.94	490
1175.05	608
1184.14	1180
1193.23	1102
1202.3	1172
1211.36	740
1220.41	470
1229.45	422
1238.48	344
1247.5	340
1256.5	340
1265.49	326
1274.48	322
1283.45	334
1292.41	370
1301.36	402
1310.29	416
1319.22	462
1328.13	524
1337.04	478
1345.93	404
1354.81	344
1363.68	354
1372.54	378
1381.38	334
1390.22	274
1399.05	260
1407.86	266
1416.66	230
1425.46	258
1434.24	320
1443.01	478
1451.77	608
1460.52	342
1469.25	266
1477.98	274
1486.7	258
1495.4	280
1504.1	250
1512.78	242
1521.45	264
1530.11	262
1538.76	262
1547.41	268
1556.03	262
1564.65	302
1573.26	368
1581.86	784
1590.45	590
1599.02	1202
1607.59	1240
1616.14	496
1624.69	340
1633.22	314
1641.75	322
1650.26	344
1658.76	284
1667.26	288
1675.74	278
1684.21	292
1692.67	276
1701.12	266
1709.56	278
1717.99	268
1726.41	274
1734.82	260
1743.22	270
1751.61	282
1759.99	266
1768.36	276
1776.71	290
1785.06	280
1793.4	272
1801.73	300
1810.04	294
1818.35	286
1826.65	276
1834.94	284
1843.21	286
1851.48	268
1859.74	280
1867.98	262
1876.22	266
1884.45	294
1892.67	292
1900.87	306
1909.07	292
1917.26	292
1925.43	282
1933.6	306
1941.76	288
1949.91	302
1958.05	292
1966.17	300
1974.29	298
1982.4	296
1990.5	298
1998.59	314
2006.67	316
2014.74	292
2022.8	298
2030.85	300
2038.89	310
2046.92	304
2054.94	306
2062.95	320
2070.96	324
2078.95	316
2086.93	312
2094.91	324
2102.87	306
2110.83	322
2118.77	308
2126.71	330
2134.63	310
2142.55	320
2150.46	324
2158.35	304
2166.24	332
2174.12	334
2181.99	318
2189.85	322
2197.7	318
2205.55	330
2213.38	328
2221.2	338
2229.02	316
2236.82	316
2244.62	318
2252.4	332
2260.18	340
2267.95	326
2275.71	332
2283.46	322
2291.2	322
2298.93	334
2306.65	326
2314.37	344
2322.07	342
2329.77	320
2337.45	330
2345.13	334
2352.8	340
2360.46	336
2368.11	336
2375.75	342
2383.38	322
2391.01	352
2398.62	348
2406.23	340
2413.82	340
2421.41	336
2428.99	340
2436.56	336
2444.12	356
2449.79	362

File: ps-ppo-7jan25-1,0000-map3_Y05_X02.txt
182.393	1046
192.79	924
203.174	894
213.542	1010
223.897	1056
234.238	832
244.566	518
254.878	360
265.178	354
275.463	318
285.734	270
295.992	200
306.236	220
316.467	246
326.684	244
336.887	234
347.075	208
357.251	220
367.413	208
377.562	234
387.697	254
397.819	272
407.926	340
418.02	288
428.101	238
438.169	212
448.223	204
458.264	180
468.291	180
478.306	168
488.307	162
498.294	170
508.269	180
518.23	186
528.177	200
538.113	248
548.034	250
557.942	244
567.838	238
577.72	238
587.589	194
597.446	206
607.289	236
617.119	398
626.936	538
636.741	202
646.533	184
656.313	170
666.078	166
675.831	180
685.571	168
695.299	160
705.014	210
714.716	210
724.406	268
734.082	266
743.746	370
753.398	428
763.037	462
772.664	420
782.278	452
791.879	620
801.467	604
811.044	384
820.608	294
830.16	268
839.699	354
849.226	338
858.741	280
868.243	298
877.731	266
887.209	280
896.674	264
906.128	358
915.569	308
924.997	248
934.414	242
943.818	270
953.211	248
962.59	296
971.958	336
981.314	442
990.659	1194
999.99	4164
1009.31	1548
1018.62	448
1027.91	1214
1037.2	1394
1046.47	478
1055.73	392
1064.98	422
1074.22	428
1083.44	422
1092.65	424
1101.86	424
1111.05	362
1120.22	308
1129.39	276
1138.54	294
1147.69	410
1156.82	956
1165.94	490
1175.05	600
1184.14	1194
1193.23	1136
1202.3	1136
1211.36	702
1220.41	486
1229.45	426
1238.48	358
1247.5	382
1256.5	358
1265.49	342
1274.48	344
1283.45	332
1292.41	378
1301.36	402
1310.29	436
1319.22	454
1328.13	548
1337.04	498
1345.93	396
1354.81	370
1363.68	380
1372.54	380
1381.38	346
1390.22	292
1399.05	284
1407.86	260
1416.66	280
1425.46	288
1434.24	316
1443.01	482
1451.77	596
1460.52	394
1469.25	282
1477.98	282
1486.7	282
1495.4	284
1504.1	268
1512.78	282
1521.45	268
1530.11	280
1538.76	272
1547.41	252
1556.03	298
1564.65	312
1573.26	400
1581.86	812
1590.45	598
1599.02	1232
1607.59	1282
1616.14	500
1624.69	358
1633.22	328
1641.75	320
1650.26	358
1658.76	304
1667.26	282
1675.74	304
1684.21	260
1692.67	286
1701.12	272
1709.56	282
1717.99	284
1726.41	278
1734.82	292
1743.22	286
1751.61	288
1759.99	306
1768.36	292
1776.71	294
1785.06	278
1793.4	274
1801.73	292
1810.04	290
1818.35	306
1826.65	292
1834.94	300
1843.21	286
1851.48	278
1859.74	282
1867.98	286
1876.22	314
1884.45	300
1892.67	294
1900.87	304
1909.07	306
1917.26	298
1925.43	298
1933.6	300
1941.76	302
1949.91	324
1958.05	328
1966.17	324
1974.29	308
1982.4	322
1990.5	308
1998.59	322
2006.67	312
2014.74	308
2022.8	322
2030.85	304
2038.89	316
2046.92	306
2054.94	318
2062.95	322
2070.96	314
2078.95	318
2086.93	322
2094.91	312
2102.87	310
2110.83	340
2118.77	332
2126.71	314
2134.63	322
2142.55	350
2150.46	308
2158.35	338
2166.24	340
2174.12	316
2181.99	328
2189.85	340
2197.7	316
2205.55	332
2213.38	322
2221.2	334
2229.02	340
2236.82	326
2244.62	314
2252.4	354
2260.18	320
2267.95	324
2275.71	334
2283.46	332
2291.2	334
2298.93	344
2306.65	354
2314.37	358
2322.07	342
2329.77	352
2337.45	330
2345.13	346
2352.8	342
2360.46	356
2368.11	366
2375.75	340
2383.38	354
2391.01	324
2398.62	332
2406.23	340
2413.82	348
2421.41	346
2428.99	376
2436.56	352
2444.12	378
2449.79	364

File: ps-ppo-7jan25-1,0000-map3_Y05_X03.txt
182.393	1052
192.79	954
203.174	962
213.542	1066
223.897	1038
234.238	830
244.566	532
254.878	394
265.178	362
275.463	350
285.734	288
295.992	242
306.236	240
316.467	256
326.684	248
336.887	244
347.075	230
357.251	224
367.413	230
377.562	240
387.697	280
397.819	282
407.926	366
418.02	292
428.101	246
438.169	240
448.223	222
458.264	190
468.291	186
478.306	188
488.307	164
498.294	186
508.269	202
518.23	198
528.177	210
538.113	270
548.034	252
557.942	262
567.838	242
577.72	270
587.589	230
597.446	240
607.289	270
617.119	422
626.936	552
636.741	234
646.533	192
656.313	182
666.078	178
675.831	182
685.571	178
695.299	198
705.014	236
714.716	240
724.406	318
734.082	296
743.746	400
753.398	438
763.037	510
772.664	416
782.278	446
791.879	622
801.467	620
811.044	440
820.608	306
830.16	286
839.699	366
849.226	356
858.741	316
868.243	320
877.731	302
887.209	306
896.674	296
906.128	376
915.569	310
924.997	274
934.414	264
943.818	270
953.211	280
962.59	312
971.958	332
981.314	452
990.659	1148
999.99	4254
1009.31	1622
1018.62	482
1027.91	1168
1037.2	1398
1046.47	492
1055.73	408
1064.98	436
1074.22	442
1083.44	426
1092.65	430
1101.86	446
1111.05	354
1120.22	326
1129.39	296
1138.54	308
1147.69	420
1156.82	952
1165.94	524
1175.05	638
1184.14	1212
1193.23	1126
1202.3	1158
1211.36	748
1220.41	492
1229.45	450
1238.48	358
1247.5	370
1256.5	362
1265.49	344
1274.48	352
1283.45	322
1292.41	376
1301.36	402
1310.29	416
1319.22	458
1328.13	518
1337.04	504
1345.93	390
1354.81	368
1363.68	380
1372.54	364
1381.38	346
1390.22	272
1399.05	262
1407.86	262
1416.66	264
1425.46	280
1434.24	316
1443.01	504
1451.77	594
1460.52	404
1469.25	276
1477.98	266
1486.7	288
1495.4	278
1504.1	244
1512.78	246
1521.45	266
1530.11	266
1538.76	278
1547.41	280
1556.03	284
1564.65	294
1573.26	372
1581.86	770
1590.45	578
1599.02	1216
1607.59	1310
1616.14	458
1624.69	356
1633.22	294
1641.75	330
1650.26	358
1658.76	304
1667.26	276
1675.74	272
1684.21	298
1692.67	294
1701.12	286
1709.56	282
1717.99	284
1726.41	288
1734.82	286
1743.22	270
1751.61	274
1759.99	270
1768.36	288
1776.71	270
1785.06	298
1793.4	284
1801.73	278
1810.04	290
1818.35	294
1826.65	290
1834.94	296
1843.21	288
1851.48	296
1859.74	278
1867.98	286
1876.22	298
1884.45	272
1892.67	270
1900.87	292
1909.07	304
1917.26	310
1925.43	310
1933.6	314
1941.76	300
1949.91	324
1958.05	312
1966.17	308
1974.29	294
1982.4	306
1990.5	304
1998.59	310
2006.67	318
2014.74	318
2022.8	312
2030.85	300
2038.89	296
2046.92	316
2054.94	322
2062.95	328
2070.96	302
2078.95	318
2086.93	330
2094.91	322
2102.87	324
2110.83	322
2118.77	340
2126.71	312
2134.63	338
2142.55	326
2150.46	338
2158.35	328
2166.24	348
2174.12	332
2181.99	322
2189.85	344
2197.7	340
2205.55	342
2213.38	320
2221.2	322
2229.02	348
2236.82	336
2244.62	342
2252.4	340
2260.18	354
2267.95	356
2275.71	326
2283.46	346
2291.2	350
2298.93	340
2306.65	350
2314.37	332
2322.07	334
2329.77	350
2337.45	358
2345.13	356
2352.8	354
2360.46	352
2368.11	352
2375.75	348
2383.38	348
2391.01	334
2398.62	356
2406.23	344
2413.82	326
2421.41	354
2428.99	338
2436.56	372
2444.12	376
2449.79	380