Folder: NRC_SU25_Spectral_Classification/Jesse_Dataset_v2/Pure Raman/Polystyrene/633nm (part 7)

File: ps-ppo-7jan25-1,0000-map3_Y07_X09.txt
182.393	1092
192.79	998
203.174	996
213.542	1106
223.897	1112
234.238	868
244.566	542
254.878	410
265.178	380
275.463	358
285.734	312
295.992	308
306.236	258
316.467	284
326.684	248
336.887	274
347.075	254
357.251	254
367.413	232
377.562	252
387.697	292
397.819	308
407.926	390
418.02	324
428.101	284
438.169	244
448.223	252
458.264	224
468.291	204
478.306	216
488.307	202
498.294	218
508.269	224
518.23	224
528.177	246
538.113	282
548.034	288
557.942	282
567.838	286
577.72	278
587.589	234
597.446	252
607.289	292
617.119	456
626.936	570
636.741	254
646.533	186
656.313	188
666.078	198
675.831	194
685.571	190
695.299	204
705.014	252
714.716	238
724.406	334
734.082	304
743.746	410
753.398	464
763.037	496
772.664	452
782.278	458
791.879	672
801.467	688
811.044	426
820.608	320
830.16	308
839.699	360
849.226	370
858.741	344
868.243	336
877.731	314
887.209	316
896.674	326
906.128	388
915.569	326
924.997	278
934.414	282
943.818	290
953.211	296
962.59	340
971.958	366
981.314	474
990.659	1174
999.99	4274
1009.31	1608
1018.62	492
1027.91	1238
1037.2	1448
1046.47	516
1055.73	456
1064.98	456
1074.22	478
1083.44	458
1092.65	456
1101.86	464
1111.05	390
1120.22	342
1129.39	288
1138.54	330
1147.69	454
1156.82	1010
1165.94	566
1175.05	684
1184.14	1260
1193.23	1180
1202.3	1220
1211.36	766
1220.41	546
1229.45	444
1238.48	408
1247.5	404
1256.5	396
1265.49	378
1274.48	396
1283.45	376
1292.41	408
1301.36	440
1310.29	458
1319.22	518
1328.13	558
1337.04	546
1345.93	440
1354.81	428
1363.68	422
1372.54	410
1381.38	374
1390.22	322
1399.05	310
1407.86	326
1416.66	298
1425.46	316
1434.24	364
1443.01	516
1451.77	640
1460.52	418
1469.25	332
1477.98	322
1486.7	332
1495.4	340
1504.1	334
1512.78	294
1521.45	294
1530.11	302
1538.76	324
1547.41	322
1556.03	314
1564.65	350
1573.26	404
1581.86	854
1590.45	622
1599.02	1300
1607.59	1324
1616.14	482
1624.69	390
1633.22	354
1641.75	352
1650.26	360
1658.76	324
1667.26	342
1675.74	326
1684.21	340
1692.67	328
1701.12	298
1709.56	314
1717.99	318
1726.41	316
1734.82	316
1743.22	310
1751.61	314
1759.99	308
1768.36	316
1776.71	318
1785.06	308
1793.4	308
1801.73	294
1810.04	302
1818.35	310
1826.65	316
1834.94	312
1843.21	310
1851.48	324
1859.74	310
1867.98	340
1876.22	320
1884.45	316
1892.67	322
1900.87	316
1909.07	314
1917.26	326
1925.43	334
1933.6	332
1941.76	310
1949.91	330
1958.05	322
1966.17	314
1974.29	334
1982.4	314
1990.5	342
1998.59	304
2006.67	346
2014.74	336
2022.8	338
2030.85	346
2038.89	350
2046.92	334
2054.94	346
2062.95	334
2070.96	344
2078.95	356
2086.93	354
2094.91	330
2102.87	336
2110.83	350
2118.77	334
2126.71	334
2134.63	350
2142.55	340
2150.46	344
2158.35	344
2166.24	342
2174.12	350
2181.99	358
2189.85	348
2197.7	326
2205.55	352
2213.38	356
2221.2	358
2229.02	326
2236.82	340
2244.62	354
2252.4	344
2260.18	352
2267.95	326
2275.71	336
2283.46	336
2291.2	348
2298.93	368
2306.65	352
2314.37	356
2322.07	360
2329.77	352
2337.45	370
2345.13	368
2352.8	376
2360.46	354
2368.11	364
2375.75	366
2383.38	362
2391.01	370
2398.62	360
2406.23	360
2413.82	360
2421.41	368
2428.99	374
2436.56	356
2444.12	382
2449.79	386

File: ps-ppo-7jan25-1,0000-map3_Y07_X10.txt
182.393	1150
192.79	1020
203.174	1014
213.542	1108
223.897	1158
234.238	902
244.566	602
254.878	446
265.178	422
275.463	388
285.734	356
295.992	342
306.236	304
316.467	346
326.684	312
336.887	320
347.075	310
357.251	304
367.413	292
377.562	294
387.697	350
397.819	358
407.926	442
418.02	374
428.101	328
438.169	294
448.223	292
458.264	270
468.291	258
478.306	266
488.307	288
498.294	272
508.269	316
518.23	294
528.177	310
538.113	358
548.034	364
557.942	346
567.838	376
577.72	356
587.589	302
597.446	320
607.289	378
617.119	534
626.936	642
636.741	342
646.533	288
656.313	284
666.078	280
675.831	272
685.571	288
695.299	294
705.014	326
714.716	314
724.406	408
734.082	416
743.746	504
753.398	512
763.037	622
772.664	558
782.278	584
791.879	744
801.467	752
811.044	520
820.608	418
830.16	390
839.699	462
849.226	442
858.741	420
868.243	434
877.731	416
887.209	400
896.674	416
906.128	470
915.569	406
924.997	362
934.414	374
943.818	372
953.211	364
962.59	400
971.958	430
981.314	592
990.659	1344
999.99	4376
1009.31	1674
1018.62	580
1027.91	1280
1037.2	1524
1046.47	624
1055.73	522
1064.98	504
1074.22	540
1083.44	550
1092.65	532
1101.86	524
1111.05	464
1120.22	430
1129.39	390
1138.54	394
1147.69	532
1156.82	1052
1165.94	612
1175.05	710
1184.14	1328
1193.23	1230
1202.3	1258
1211.36	788
1220.41	590
1229.45	504
1238.48	482
1247.5	436
1256.5	430
1265.49	434
1274.48	424
1283.45	414
1292.41	470
1301.36	466
1310.29	490
1319.22	550
1328.13	602
1337.04	560
1345.93	484
1354.81	474
1363.68	468
1372.54	472
1381.38	406
1390.22	350
1399.05	342
1407.86	318
1416.66	354
1425.46	320
1434.24	402
1443.01	544
1451.77	664
1460.52	444
1469.25	346
1477.98	338
1486.7	352
1495.4	338
1504.1	348
1512.78	312
1521.45	336
1530.11	314
1538.76	322
1547.41	324
1556.03	348
1564.65	360
1573.26	442
1581.86	894
1590.45	674
1599.02	1288
1607.59	1334
1616.14	536
1624.69	418
1633.22	378
1641.75	378
1650.26	382
1658.76	360
1667.26	344
1675.74	352
1684.21	350
1692.67	350
1701.12	344
1709.56	338
1717.99	310
1726.41	350
1734.82	336
1743.22	336
1751.61	330
1759.99	322
1768.36	304
1776.71	340
1785.06	320
1793.4	346
1801.73	338
1810.04	352
1818.35	346
1826.65	328
1834.94	332
1843.21	342
1851.48	354
1859.74	336
1867.98	348
1876.22	348
1884.45	346
1892.67	352
1900.87	358
1909.07	344
1917.26	374
1925.43	352
1933.6	344
1941.76	338
1949.91	342
1958.05	356
1966.17	348
1974.29	366
1982.4	352
1990.5	342
1998.59	350
2006.67	366
2014.74	338
2022.8	364
2030.85	398
2038.89	372
2046.92	388
2054.94	392
2062.95	372
2070.96	382
2078.95	386
2086.93	382
2094.91	350
2102.87	366
2110.83	386
2118.77	366
2126.71	376
2134.63	380
2142.55	370
2150.46	370
2158.35	394
2166.24	388
2174.12	368
2181.99	350
2189.85	408
2197.7	344
2205.55	390
2213.38	376
2221.2	392
2229.02	388
2236.82	392
2244.62	370
2252.4	354
2260.18	394
2267.95	388
2275.71	384
2283.46	382
2291.2	364
2298.93	396
2306.65	392
2314.37	388
2322.07	388
2329.77	392
2337.45	394
2345.13	394
2352.8	390
2360.46	372
2368.11	376
2375.75	392
2383.38	392
2391.01	398
2398.62	388
2406.23	382
2413.82	378
2421.41	378
2428.99	384
2436.56	398
2444.12	404
2449.79	410

File: ps-ppo-7jan25-1,0000-map3_Y08_X01.txt
182.393	1070
192.79	966
203.174	956
213.542	1034
223.897	1056
234.238	866
244.566	534
254.878	416
265.178	352
275.463	360
285.734	310
295.992	266
306.236	260
316.467	248
326.684	264
336.887	260
347.075	266
357.251	246
367.413	252
377.562	272
387.697	292
397.819	330
407.926	400
418.02	320
428.101	258
438.169	246
448.223	252
458.264	226
468.291	230
478.306	214
488.307	212
498.294	228
508.269	238
518.23	224
528.177	244
538.113	286
548.034	298
557.942	278
567.838	258
577.72	302
587.589	232
597.446	248
607.289	288
617.119	448
626.936	558
636.741	258
646.533	198
656.313	198
666.078	204
675.831	198
685.571	208
695.299	216
705.014	242
714.716	230
724.406	298
734.082	306
743.746	400
753.398	438
763.037	492
772.664	440
782.278	476
791.879	664
801.467	640
811.044	418
820.608	314
830.16	272
839.699	362
849.226	342
858.741	316
868.243	294
877.731	286
887.209	268
896.674	304
906.128	362
915.569	328
924.997	270
934.414	264
943.818	266
953.211	274
962.59	298
971.958	358
981.314	448
990.659	1196
999.99	4202
1009.31	1572
1018.62	476
1027.91	1210
1037.2	1384
1046.47	484
1055.73	404
1064.98	420
1074.22	442
1083.44	428
1092.65	416
1101.86	424
1111.05	366
1120.22	300
1129.39	240
1138.54	290
1147.69	422
1156.82	982
1165.94	522
1175.05	606
1184.14	1186
1193.23	1150
1202.3	1132
1211.36	706
1220.41	468
1229.45	418
1238.48	386
1247.5	376
1256.5	354
1265.49	350
1274.48	346
1283.45	352
1292.41	366
1301.36	402
1310.29	418
1319.22	480
1328.13	518
1337.04	492
1345.93	398
1354.81	364
1363.68	376
1372.54	362
1381.38	356
1390.22	272
1399.05	270
1407.86	254
1416.66	258
1425.46	262
1434.24	328
1443.01	476
1451.77	600
1460.52	386
1469.25	286
1477.98	288
1486.7	254
1495.4	304
1504.1	262
1512.78	282
1521.45	272
1530.11	274
1538.76	262
1547.41	282
1556.03	282
1564.65	316
1573.26	360
1581.86	822
1590.45	612
1599.02	1226
1607.59	1332
1616.14	472
1624.69	344
1633.22	344
1641.75	332
1650.26	348
1658.76	302
1667.26	286
1675.74	290
1684.21	296
1692.67	300
1701.12	276
1709.56	294
1717.99	290
1726.41	296
1734.82	304
1743.22	284
1751.61	298
1759.99	282
1768.36	292
1776.71	300
1785.06	290
1793.4	294
1801.73	306
1810.04	310
1818.35	302
1826.65	302
1834.94	294
1843.21	300
1851.48	288
1859.74	296
1867.98	298
1876.22	284
1884.45	296
1892.67	312
1900.87	302
1909.07	320
1917.26	326
1925.43	298
1933.6	312
1941.76	310
1949.91	324
1958.05	322
1966.17	324
1974.29	308
1982.4	314
1990.5	314
1998.59	304
2006.67	322
2014.74	320
2022.8	316
2030.85	326
2038.89	306
2046.92	306
2054.94	330
2062.95	312
2070.96	324
2078.95	310
2086.93	320
2094.91	312
2102.87	334
2110.83	334
2118.77	318
2126.71	328
2134.63	326
2142.55	330
2150.46	328
2158.35	322
2166.24	322
2174.12	324
2181.99	344
2189.85	328
2197.7	318
2205.55	324
2213.38	322
2221.2	326
2229.02	338
2236.82	340
2244.62	318
2252.4	352
2260.18	332
2267.95	326
2275.71	322
2283.46	320
2291.2	342
2298.93	324
2306.65	342
2314.37	316
2322.07	340
2329.77	350
2337.45	348
2345.13	352
2352.8	350
2360.46	346
2368.11	332
2375.75	330
2383.38	340
2391.01	340
2398.62	330
2406.23	342
2413.82	348
2421.41	354
2428.99	342
2436.56	340
2444.12	376
2449.79	356

File: ps-ppo-7jan25-1,0000-map3_Y08_X02.txt
182.393	1028
192.79	938
203.174	938
213.542	1048
223.897	1052
234.238	826
244.566	542
254.878	388
265.178	348
275.463	322
285.734	306
295.992	244
306.236	242
316.467	248
326.684	244
336.887	236
347.075	246
357.251	226
367.413	218
377.562	238
387.697	252
397.819	308
407.926	380
418.02	294
428.101	234
438.169	232
448.223	206
458.264	184
468.291	190
478.306	192
488.307	184
498.294	192
508.269	222
518.23	208
528.177	216
538.113	270
548.034	262
557.942	270
567.838	268
577.72	264
587.589	234
597.446	222
607.289	278
617.119	456
626.936	552
636.741	242
646.533	208
656.313	186
666.078	180
675.831	174
685.571	192
695.299	212
705.014	226
714.716	226
724.406	286
734.082	300
743.746	396
753.398	454
763.037	476
772.664	448
782.278	470
791.879	640
801.467	672
811.044	422
820.608	326
830.16	282
839.699	366
849.226	336
858.741	300
868.243	320
877.731	312
887.209	298
896.674	318
906.128	380
915.569	304
924.997	282
934.414	264
943.818	284
953.211	292
962.59	314
971.958	338
981.314	480
990.659	1160
999.99	4232
1009.31	1560
1018.62	450
1027.91	1186
1037.2	1426
1046.47	502
1055.73	408
1064.98	438
1074.22	460
1083.44	432
1092.65	426
1101.86	436
1111.05	350
1120.22	332
1129.39	300
1138.54	302
1147.69	408
1156.82	936
1165.94	526
1175.05	628
1184.14	1178
1193.23	1154
1202.3	1110
1211.36	738
1220.41	502
1229.45	442
1238.48	372
1247.5	346
1256.5	330
1265.49	334
1274.48	312
1283.45	334
1292.41	378
1301.36	422
1310.29	442
1319.22	460
1328.13	520
1337.04	486
1345.93	398
1354.81	374
1363.68	378
1372.54	366
1381.38	368
1390.22	268
1399.05	258
1407.86	272
1416.66	266
1425.46	274
1434.24	314
1443.01	478
1451.77	554
1460.52	372
1469.25	280
1477.98	270
1486.7	278
1495.4	284
1504.1	262
1512.78	264
1521.45	252
1530.11	232
1538.76	276
1547.41	264
1556.03	292
1564.65	302
1573.26	374
1581.86	774
1590.45	600
1599.02	1228
1607.59	1326
1616.14	438
1624.69	370
1633.22	306
1641.75	310
1650.26	342
1658.76	298
1667.26	274
1675.74	262
1684.21	282
1692.67	288
1701.12	280
1709.56	282
1717.99	258
1726.41	274
1734.82	270
1743.22	262
1751.61	266
1759.99	266
1768.36	256
1776.71	280
1785.06	282
1793.4	276
1801.73	282
1810.04	282
1818.35	288
1826.65	290
1834.94	296
1843.21	284
1851.48	286
1859.74	300
1867.98	302
1876.22	282
1884.45	292
1892.67	292
1900.87	316
1909.07	306
1917.26	294
1925.43	326
1933.6	302
1941.76	284
1949.91	304
1958.05	324
1966.17	308
1974.29	304
1982.4	288
1990.5	310
1998.59	302
2006.67	320
2014.74	278
2022.8	316
2030.85	310
2038.89	314
2046.92	328
2054.94	314
2062.95	314
2070.96	306
2078.95	314
2086.93	308
2094.91	312
2102.87	314
2110.83	320
2118.77	324
2126.71	334
2134.63	326
2142.55	300
2150.46	310
2158.35	326
2166.24	336
2174.12	326
2181.99	332
2189.85	318
2197.7	334
2205.55	322
2213.38	326
2221.2	338
2229.02	334
2236.82	336
2244.62	344
2252.4	320
2260.18	340
2267.95	330
2275.71	338
2283.46	332
2291.2	320
2298.93	332
2306.65	328
2314.37	356
2322.07	332
2329.77	328
2337.45	332
2345.13	332
2352.8	364
2360.46	348
2368.11	332
2375.75	332
2383.38	342
2391.01	326
2398.62	346
2406.23	348
2413.82	322
2421.41	334
2428.99	330
2436.56	364
2444.12	348
2449.79	362

File: ps-ppo-7jan25-1,0000-map3_Y08_X03.txt
182.393	1034
192.79	912
203.174	946
213.542	1032
223.897	1076
234.238	828
244.566	522
254.878	402
265.178	354
275.463	328
285.734	284
295.992	260
306.236	246
316.467	226
326.684	240
336.887	240
347.075	246
357.251	220
367.413	216
377.562	236
387.697	262
397.819	288
407.926	366
418.02	278
428.101	244
438.169	222
448.223	220
458.264	198
468.291	180
478.306	166
488.307	168
498.294	180
508.269	210
518.23	198
528.177	228
538.113	254
548.034	260
557.942	268
567.838	244
577.72	262
587.589	206
597.446	214
607.289	268
617.119	412
626.936	522
636.741	234
646.533	192
656.313	182
666.078	178
675.831	176
685.571	164
695.299	178
705.014	212
714.716	202
724.406	274
734.082	272
743.746	384
753.398	430
763.037	488
772.664	424
782.278	464
791.879	636
801.467	620
811.044	386
820.608	294
830.16	254
839.699	344
849.226	320
858.741	282
868.243	296
877.731	292
887.209	272
896.674	276
906.128	346
915.569	300
924.997	252
934.414	252
943.818	260
953.211	282
962.59	300
971.958	304
981.314	458
990.659	1160
999.99	4190
1009.31	1518
1018.62	450
1027.91	1158
1037.2	1398
1046.47	460
1055.73	384
1064.98	394
1074.22	430
1083.44	400
1092.65	418
1101.86	418
1111.05	336
1120.22	286
1129.39	260
1138.54	280
1147.69	392
1156.82	946
1165.94	484
1175.05	624
1184.14	1208
1193.23	1136
1202.3	1146
1211.36	712
1220.41	478
1229.45	418
1238.48	374
1247.5	346
1256.5	346
1265.49	348
1274.48	324
1283.45	350
1292.41	346
1301.36	406
1310.29	418
1319.22	454
1328.13	538
1337.04	478
1345.93	398
1354.81	348
1363.68	368
1372.54	384
1381.38	328
1390.22	274
1399.05	264
1407.86	254
1416.66	258
1425.46	270
1434.24	316
1443.01	478
1451.77	580
1460.52	362
1469.25	268
1477.98	268
1486.7	256
1495.4	280
1504.1	248
1512.78	264
1521.45	268
1530.11	282
1538.76	272
1547.41	260
1556.03	274
1564.65	304
1573.26	362
1581.86	802
1590.45	590
1599.02	1196
1607.59	1308
1616.14	476
1624.69	346
1633.22	304
1641.75	324
1650.26	344
1658.76	280
1667.26	282
1675.74	286
1684.21	276
1692.67	284
1701.12	282
1709.56	286
1717.99	268
1726.41	266
1734.82	272
1743.22	278
1751.61	282
1759.99	266
1768.36	284
1776.71	276
1785.06	282
1793.4	286
1801.73	292
1810.04	298
1818.35	284
1826.65	260
1834.94	284
1843.21	282
1851.48	286
1859.74	306
1867.98	278
1876.22	292
1884.45	304
1892.67	268
1900.87	300
1909.07	296
1917.26	304
1925.43	308
1933.6	300
1941.76	300
1949.91	296
1958.05	286
1966.17	310
1974.29	284
1982.4	292
1990.5	298
1998.59	308
2006.67	312
2014.74	304
2022.8	300
2030.85	306
2038.89	320
2046.92	298
2054.94	312
2062.95	314
2070.96	306
2078.95	314
2086.93	312
2094.91	314
2102.87	322
2110.83	306
2118.77	316
2126.71	310
2134.63	316
2142.55	308
2150.46	316
2158.35	330
2166.24	304
2174.12	302
2181.99	318
2189.85	316
2197.7	342
2205.55	324
2213.38	330
2221.2	330
2229.02	332
2236.82	328
2244.62	320
2252.4	332
2260.18	328
2267.95	350
2275.71	334
2283.46	314
2291.2	322
2298.93	338
2306.65	340
2314.37	338
2322.07	330
2329.77	336
2337.45	340
2345.13	322
2352.8	332
2360.46	334
2368.11	328
2375.75	320
2383.38	330
2391.01	326
2398.62	334
2406.23	332
2413.82	326
2421.41	340
2428.99	350
2436.56	326
2444.12	342
2449.79	370

File: ps-ppo-7jan25-1,0000-map3_Y08_X08.txt
182.393	1054
192.79	996
203.174	964
213.542	1094
223.897	1110
234.238	876
244.566	572
254.878	410
265.178	378
275.463	350
285.734	316
295.992	284
306.236	246
316.467	284
326.684	262
336.887	264
347.075	274
357.251	262
367.413	238
377.562	280
387.697	288
397.819	306
407.926	378
418.02	304
428.101	262
438.169	248
448.223	232
458.264	212
468.291	206
478.306	188
488.307	192
498.294	180
508.269	218
518.23	206
528.177	234
538.113	272
548.034	270
557.942	280
567.838	252
577.72	274
587.589	234
597.446	210
607.289	254
617.119	420
626.936	550
636.741	220
646.533	182
656.313	192
666.078	172
675.831	186
685.571	180
695.299	184
705.014	222
714.716	216
724.406	308
734.082	280
743.746	376
753.398	430
763.037	476
772.664	430
782.278	476
791.879	680
801.467	632
811.044	416
820.608	304
830.16	276
839.699	354
849.226	344
858.741	312
868.243	308
877.731	308
887.209	308
896.674	294
906.128	378
915.569	298
924.997	272
934.414	266
943.818	268
953.211	288
962.59	308
971.958	330
981.314	490
990.659	1188
999.99	4266
1009.31	1576
1018.62	454
1027.91	1188
1037.2	1412
1046.47	492
1055.73	416
1064.98	424
1074.22	462
1083.44	422
1092.65	446
1101.86	460
1111.05	380
1120.22	340
1129.39	298
1138.54	330
1147.69	422
1156.82	994
1165.94	528
1175.05	666
1184.14	1208
1193.23	1148
1202.3	1196
1211.36	744
1220.41	496
1229.45	474
1238.48	390
1247.5	386
1256.5	372
1265.49	370
1274.48	358
1283.45	354
1292.41	396
1301.36	434
1310.29	444
1319.22	486
1328.13	586
1337.04	522
1345.93	422
1354.81	402
1363.68	396
1372.54	404
1381.38	370
1390.22	300
1399.05	288
1407.86	308
1416.66	280
1425.46	264
1434.24	356
1443.01	530
1451.77	654
1460.52	400
1469.25	296
1477.98	288
1486.7	300
1495.4	336
1504.1	302
1512.78	264
1521.45	294
1530.11	320
1538.76	274
1547.41	296
1556.03	312
1564.65	332
1573.26	418
1581.86	820
1590.45	646
1599.02	1244
1607.59	1318
1616.14	500
1624.69	374
1633.22	346
1641.75	338
1650.26	364
1658.76	320
1667.26	304
1675.74	304
1684.21	310
1692.67	310
1701.12	308
1709.56	294
1717.99	296
1726.41	302
1734.82	316
1743.22	332
1751.61	302
1759.99	328
1768.36	282
1776.71	314
1785.06	276
1793.4	330
1801.73	308
1810.04	322
1818.35	304
1826.65	322
1834.94	308
1843.21	308
1851.48	306
1859.74	298
1867.98	294
1876.22	332
1884.45	300
1892.67	306
1900.87	306
1909.07	318
1917.26	312
1925.43	328
1933.6	322
1941.76	334
1949.91	320
1958.05	298
1966.17	318
1974.29	310
1982.4	326
1990.5	326
1998.59	324
2006.67	332
2014.74	316
2022.8	342
2030.85	318
2038.89	342
2046.92	338
2054.94	346
2062.95	350
2070.96	346
2078.95	330
2086.93	336
2094.91	348
2102.87	344
2110.83	332
2118.77	342
2126.71	340
2134.63	340
2142.55	352
2150.46	358
2158.35	344
2166.24	346
2174.12	340
2181.99	346
2189.85	332
2197.7	350
2205.55	344
2213.38	336
2221.2	346
2229.02	364
2236.82	364
2244.62	344
2252.4	354
2260.18	336
2267.95	342
2275.71	346
2283.46	340
2291.2	334
2298.93	362
2306.65	348
2314.37	360
2322.07	356
2329.77	362
2337.45	358
2345.13	352
2352.8	346
2360.46	352
2368.11	374
2375.75	364
2383.38	370
2391.01	360
2398.62	366
2406.23	370
2413.82	350
2421.41	342
2428.99	380
2436.56	370
2444.12	374
2449.79	394

File: ps-ppo-7jan25-1,0000-map3_Y08_X10.txt
182.393	1018
192.79	976
203.174	954
213.542	1054
223.897	1058
234.238	820
244.566	502
254.878	402
265.178	318
275.463	316
285.734	284
295.992	236
306.236	240
316.467	248
326.684	242
336.887	238
347.075	220
357.251	206
367.413	198
377.562	236
387.697	248
397.819	296
407.926	344
418.02	274
428.101	248
438.169	224
448.223	214
458.264	176
468.291	180
478.306	180
488.307	178
498.294	182
508.269	200
518.23	190
528.177	210
538.113	248
548.034	252
557.942	246
567.838	258
577.72	252
587.589	216
597.446	230
607.289	254
617.119	408
626.936	486
636.741	232
646.533	184
656.313	170
666.078	184
675.831	178
685.571	184
695.299	180
705.014	224
714.716	222
724.406	290
734.082	280
743.746	386
753.398	422
763.037	506
772.664	460
782.278	452
791.879	624
801.467	630
811.044	402
820.608	302
830.16	244
839.699	334
849.226	328
858.741	296
868.243	300
877.731	300
887.209	280
896.674	286
906.128	370
915.569	312
924.997	268
934.414	256
943.818	268
953.211	256
962.59	270
971.958	334
981.314	466
990.659	1194
999.99	4246
1009.31	1560
1018.62	450
1027.91	1202
1037.2	1424
1046.47	488
1055.73	400
1064.98	434
1074.22	446
1083.44	404
1092.65	442
1101.86	414
1111.05	352
1120.22	310
1129.39	260
1138.54	274
1147.69	392
1156.82	1002
1165.94	534
1175.05	652
1184.14	1232
1193.23	1140
1202.3	1170
1211.36	714
1220.41	494
1229.45	432
1238.48	376
1247.5	358
1256.5	368
1265.49	340
1274.48	350
1283.45	348
1292.41	402
1301.36	414
1310.29	438
1319.22	448
1328.13	542
1337.04	482
1345.93	392
1354.81	380
1363.68	396
1372.54	374
1381.38	344
1390.22	288
1399.05	272
1407.86	268
1416.66	288
1425.46	268
1434.24	322
1443.01	488
1451.77	608
1460.52	378
1469.25	290
1477.98	262
1486.7	294
1495.4	306
1504.1	260
1512.78	266
1521.45	272
1530.11	274
1538.76	264
1547.41	272
1556.03	290
1564.65	314
1573.26	390
1581.86	812
1590.45	598
1599.02	1250
1607.59	1320
1616.14	492
1624.69	364
1633.22	320
1641.75	336
1650.26	338
1658.76	292
1667.26	274
1675.74	278
1684.21	282
1692.67	292
1701.12	278
1709.56	268
1717.99	280
1726.41	294
1734.82	286
1743.22	276
1751.61	262
1759.99	264
1768.36	280
1776.71	300
1785.06	278
1793.4	268
1801.73	288
1810.04	296
1818.35	302
1826.65	282
1834.94	284
1843.21	302
1851.48	296
1859.74	274
1867.98	278
1876.22	290
1884.45	286
1892.67	300
1900.87	298
1909.07	286
1917.26	306
1925.43	306
1933.6	304
1941.76	290
1949.91	312
1958.05	304
1966.17	304
1974.29	320
1982.4	296
1990.5	316
1998.59	304
2006.67	324
2014.74	298
2022.8	290
2030.85	302
2038.89	316
2046.92	320
2054.94	320
2062.95	324
2070.96	322
2078.95	330
2086.93	342
2094.91	316
2102.87	320
2110.83	316
2118.77	336
2126.71	344
2134.63	330
2142.55	344
2150.46	314
2158.35	330
2166.24	326
2174.12	330
2181.99	314
2189.85	326
2197.7	352
2205.55	344
2213.38	354
2221.2	340
2229.02	326
2236.82	334
2244.62	332
2252.4	326
2260.18	356
2267.95	340
2275.71	348
2283.46	340
2291.2	364
2298.93	354
2306.65	338
2314.37	348
2322.07	344
2329.77	362
2337.45	328
2345.13	358
2352.8	362
2360.46	344
2368.11	358
2375.75	354
2383.38	342
2391.01	346
2398.62	346
2406.23	352
2413.82	366
2421.41	356
2428.99	350
2436.56	370
2444.12	358
2449.79	382

File: ps-ppo-7jan25-1,0000-map3_Y09_X08.txt
182.393	1122
192.79	990
203.174	1032
213.542	1126
223.897	1174
234.238	942
244.566	590
254.878	474
265.178	420
275.463	392
285.734	384
295.992	356
306.236	320
316.467	346
326.684	342
336.887	354
347.075	346
357.251	312
367.413	308
377.562	338
387.697	356
397.819	368
407.926	450
418.02	394
428.101	356
438.169	344
448.223	332
458.264	306
468.291	288
478.306	286
488.307	298
498.294	312
508.269	304
518.23	318
528.177	310
538.113	354
548.034	350
557.942	350
567.838	360
577.72	354
587.589	310
597.446	312
607.289	366
617.119	516
626.936	632
636.741	308
646.533	270
656.313	264
666.078	268
675.831	262
685.571	262
695.299	266
705.014	298
714.716	298
724.406	374
734.082	362
743.746	458
753.398	518
763.037	588
772.664	496
782.278	550
791.879	730
801.467	684
811.044	492
820.608	374
830.16	344
839.699	440
849.226	422
858.741	362
868.243	358
877.731	362
887.209	336
896.674	358
906.128	430
915.569	374
924.997	312
934.414	324
943.818	330
953.211	328
962.59	344
971.958	398
981.314	520
990.659	1194
999.99	4258
1009.31	1630
1018.62	538
1027.91	1276
1037.2	1460
1046.47	514
1055.73	454
1064.98	472
1074.22	508
1083.44	500
1092.65	460
1101.86	494
1111.05	408
1120.22	364
1129.39	336
1138.54	348
1147.69	474
1156.82	1030
1165.94	576
1175.05	674
1184.14	1238
1193.23	1168
1202.3	1220
1211.36	768
1220.41	534
1229.45	492
1238.48	440
1247.5	434
1256.5	404
1265.49	426
1274.48	412
1283.45	392
1292.41	448
1301.36	446
1310.29	488
1319.22	526
1328.13	582
1337.04	550
1345.93	434
1354.81	440
1363.68	454
1372.54	424
1381.38	406
1390.22	338
1399.05	334
1407.86	328
1416.66	332
1425.46	334
1434.24	392
1443.01	540
1451.77	668
1460.52	444
1469.25	326
1477.98	330
1486.7	336
1495.4	370
1504.1	312
1512.78	318
1521.45	330
1530.11	324
1538.76	324
1547.41	354
1556.03	334
1564.65	384
1573.26	426
1581.86	874
1590.45	672
1599.02	1266
1607.59	1312
1616.14	512
1624.69	406
1633.22	376
1641.75	386
1650.26	400
1658.76	352
1667.26	326
1675.74	352
1684.21	342
1692.67	350
1701.12	346
1709.56	328
1717.99	348
1726.41	344
1734.82	326
1743.22	328
1751.61	326
1759.99	342
1768.36	338
1776.71	328
1785.06	352
1793.4	342
1801.73	346
1810.04	326
1818.35	348
1826.65	348
1834.94	340
1843.21	338
1851.48	354
1859.74	338
1867.98	354
1876.22	340
1884.45	328
1892.67	330
1900.87	360
1909.07	356
1917.26	344
1925.43	350
1933.6	362
1941.76	364
1949.91	354
1958.05	344
1966.17	356
1974.29	340
1982.4	338
1990.5	336
1998.59	352
2006.67	338
2014.74	342
2022.8	364
2030.85	346
2038.89	352
2046.92	356
2054.94	358
2062.95	362
2070.96	350
2078.95	356
2086.93	364
2094.91	364
2102.87	356
2110.83	346
2118.77	370
2126.71	370
2134.63	346
2142.55	356
2150.46	358
2158.35	348
2166.24	372
2174.12	378
2181.99	364
2189.85	346
2197.7	354
2205.55	364
2213.38	362
2221.2	364
2229.02	354
2236.82	346
2244.62	372
2252.4	350
2260.18	362
2267.95	382
2275.71	362
2283.46	370
2291.2	348
2298.93	362
2306.65	370
2314.37	374
2322.07	380
2329.77	352
2337.45	382
2345.13	362
2352.8	362
2360.46	358
2368.11	372
2375.75	386
2383.38	364
2391.01	378
2398.62	362
2406.23	366
2413.82	356
2421.41	386
2428.99	378
2436.56	362
2444.12	378
2449.79	382