Folder: NRC_SU25_Spectral_Classification/Jesse_Dataset_v2/Pure Raman/Polystyrene/633nm (part 6)

File: ps-ppo-7jan25-1,0000-map3_Y06_X05.txt
182.393	1068
192.79	906
203.174	948
213.542	1026
223.897	1068
234.238	836
244.566	538
254.878	392
265.178	354
275.463	334
285.734	302
295.992	270
306.236	250
316.467	236
326.684	264
336.887	248
347.075	240
357.251	216
367.413	242
377.562	262
387.697	270
397.819	312
407.926	354
418.02	286
428.101	248
438.169	240
448.223	224
458.264	190
468.291	188
478.306	196
488.307	176
498.294	208
508.269	224
518.23	220
528.177	232
538.113	262
548.034	274
557.942	242
567.838	258
577.72	266
587.589	244
597.446	222
607.289	278
617.119	450
626.936	544
636.741	248
646.533	192
656.313	212
666.078	200
675.831	176
685.571	192
695.299	184
705.014	248
714.716	226
724.406	318
734.082	286
743.746	392
753.398	448
763.037	494
772.664	442
782.278	478
791.879	650
801.467	642
811.044	408
820.608	330
830.16	286
839.699	342
849.226	374
858.741	314
868.243	318
877.731	316
887.209	284
896.674	318
906.128	392
915.569	324
924.997	274
934.414	282
943.818	264
953.211	304
962.59	316
971.958	342
981.314	466
990.659	1182
999.99	4192
1009.31	1596
1018.62	474
1027.91	1164
1037.2	1456
1046.47	512
1055.73	394
1064.98	418
1074.22	456
1083.44	438
1092.65	452
1101.86	436
1111.05	360
1120.22	308
1129.39	280
1138.54	300
1147.69	438
1156.82	1006
1165.94	546
1175.05	638
1184.14	1212
1193.23	1170
1202.3	1154
1211.36	746
1220.41	490
1229.45	436
1238.48	382
1247.5	372
1256.5	360
1265.49	368
1274.48	364
1283.45	344
1292.41	386
1301.36	412
1310.29	414
1319.22	504
1328.13	538
1337.04	478
1345.93	406
1354.81	392
1363.68	372
1372.54	402
1381.38	348
1390.22	316
1399.05	258
1407.86	276
1416.66	262
1425.46	284
1434.24	342
1443.01	496
1451.77	614
1460.52	372
1469.25	294
1477.98	270
1486.7	280
1495.4	318
1504.1	274
1512.78	284
1521.45	280
1530.11	274
1538.76	274
1547.41	280
1556.03	304
1564.65	296
1573.26	382
1581.86	828
1590.45	614
1599.02	1232
1607.59	1348
1616.14	484
1624.69	364
1633.22	310
1641.75	312
1650.26	336
1658.76	310
1667.26	298
1675.74	304
1684.21	294
1692.67	294
1701.12	292
1709.56	292
1717.99	274
1726.41	270
1734.82	268
1743.22	292
1751.61	280
1759.99	292
1768.36	282
1776.71	282
1785.06	292
1793.4	274
1801.73	300
1810.04	298
1818.35	276
1826.65	288
1834.94	276
1843.21	280
1851.48	276
1859.74	292
1867.98	278
1876.22	270
1884.45	280
1892.67	296
1900.87	302
1909.07	280
1917.26	316
1925.43	328
1933.6	324
1941.76	320
1949.91	300
1958.05	304
1966.17	306
1974.29	294
1982.4	294
1990.5	316
1998.59	308
2006.67	306
2014.74	306
2022.8	298
2030.85	322
2038.89	324
2046.92	324
2054.94	316
2062.95	298
2070.96	324
2078.95	324
2086.93	322
2094.91	314
2102.87	304
2110.83	334
2118.77	322
2126.71	322
2134.63	312
2142.55	336
2150.46	300
2158.35	326
2166.24	318
2174.12	344
2181.99	336
2189.85	330
2197.7	316
2205.55	336
2213.38	332
2221.2	344
2229.02	318
2236.82	332
2244.62	316
2252.4	356
2260.18	326
2267.95	336
2275.71	324
2283.46	330
2291.2	356
2298.93	344
2306.65	350
2314.37	360
2322.07	340
2329.77	334
2337.45	346
2345.13	344
2352.8	346
2360.46	348
2368.11	350
2375.75	334
2383.38	352
2391.01	342
2398.62	342
2406.23	348
2413.82	358
2421.41	354
2428.99	368
2436.56	354
2444.12	364
2449.79	376

File: ps-ppo-7jan25-1,0000-map3_Y06_X07.txt
182.393	1068
192.79	988
203.174	980
213.542	1064
223.897	1104
234.238	898
244.566	558
254.878	428
265.178	386
275.463	342
285.734	320
295.992	276
306.236	284
316.467	258
326.684	276
336.887	286
347.075	258
357.251	274
367.413	240
377.562	282
387.697	288
397.819	332
407.926	398
418.02	326
428.101	294
438.169	262
448.223	262
458.264	236
468.291	226
478.306	222
488.307	222
498.294	228
508.269	240
518.23	240
528.177	266
538.113	294
548.034	290
557.942	294
567.838	288
577.72	296
587.589	266
597.446	258
607.289	304
617.119	450
626.936	584
636.741	260
646.533	210
656.313	204
666.078	200
675.831	200
685.571	206
695.299	210
705.014	250
714.716	256
724.406	316
734.082	308
743.746	438
753.398	462
763.037	530
772.664	458
782.278	486
791.879	680
801.467	660
811.044	448
820.608	334
830.16	298
839.699	368
849.226	380
858.741	310
868.243	344
877.731	332
887.209	316
896.674	322
906.128	390
915.569	328
924.997	278
934.414	280
943.818	288
953.211	314
962.59	344
971.958	336
981.314	490
990.659	1218
999.99	4188
1009.31	1610
1018.62	514
1027.91	1222
1037.2	1482
1046.47	528
1055.73	460
1064.98	464
1074.22	480
1083.44	490
1092.65	462
1101.86	462
1111.05	408
1120.22	356
1129.39	318
1138.54	320
1147.69	470
1156.82	970
1165.94	556
1175.05	668
1184.14	1224
1193.23	1166
1202.3	1214
1211.36	744
1220.41	530
1229.45	454
1238.48	402
1247.5	396
1256.5	390
1265.49	376
1274.48	374
1283.45	392
1292.41	426
1301.36	448
1310.29	454
1319.22	504
1328.13	584
1337.04	516
1345.93	422
1354.81	398
1363.68	408
1372.54	412
1381.38	366
1390.22	308
1399.05	304
1407.86	310
1416.66	292
1425.46	290
1434.24	344
1443.01	548
1451.77	632
1460.52	412
1469.25	318
1477.98	288
1486.7	310
1495.4	338
1504.1	286
1512.78	300
1521.45	300
1530.11	308
1538.76	302
1547.41	308
1556.03	316
1564.65	334
1573.26	394
1581.86	830
1590.45	632
1599.02	1266
1607.59	1310
1616.14	510
1624.69	402
1633.22	350
1641.75	350
1650.26	366
1658.76	304
1667.26	320
1675.74	314
1684.21	334
1692.67	316
1701.12	304
1709.56	310
1717.99	286
1726.41	306
1734.82	306
1743.22	290
1751.61	296
1759.99	304
1768.36	280
1776.71	292
1785.06	296
1793.4	322
1801.73	322
1810.04	306
1818.35	304
1826.65	316
1834.94	304
1843.21	318
1851.48	298
1859.74	304
1867.98	328
1876.22	308
1884.45	330
1892.67	320
1900.87	304
1909.07	300
1917.26	342
1925.43	350
1933.6	340
1941.76	308
1949.91	308
1958.05	330
1966.17	318
1974.29	334
1982.4	332
1990.5	312
1998.59	334
2006.67	328
2014.74	320
2022.8	328
2030.85	348
2038.89	328
2046.92	314
2054.94	342
2062.95	316
2070.96	350
2078.95	336
2086.93	324
2094.91	330
2102.87	330
2110.83	328
2118.77	350
2126.71	332
2134.63	348
2142.55	348
2150.46	344
2158.35	338
2166.24	368
2174.12	352
2181.99	334
2189.85	354
2197.7	344
2205.55	330
2213.38	318
2221.2	354
2229.02	334
2236.82	328
2244.62	346
2252.4	346
2260.18	344
2267.95	330
2275.71	344
2283.46	340
2291.2	340
2298.93	346
2306.65	340
2314.37	354
2322.07	356
2329.77	360
2337.45	352
2345.13	364
2352.8	330
2360.46	366
2368.11	348
2375.75	362
2383.38	364
2391.01	354
2398.62	352
2406.23	370
2413.82	358
2421.41	350
2428.99	352
2436.56	352
2444.12	370
2449.79	370

File: ps-ppo-7jan25-1,0000-map3_Y06_X09.txt
182.393	1076
192.79	970
203.174	984
213.542	1084
223.897	1094
234.238	862
244.566	576
254.878	410
265.178	364
275.463	352
285.734	318
295.992	278
306.236	262
316.467	266
326.684	262
336.887	264
347.075	262
357.251	242
367.413	252
377.562	266
387.697	312
397.819	326
407.926	376
418.02	298
428.101	296
438.169	250
448.223	260
458.264	200
468.291	220
478.306	200
488.307	216
498.294	222
508.269	216
518.23	244
528.177	248
538.113	310
548.034	286
557.942	290
567.838	276
577.72	294
587.589	252
597.446	238
607.289	282
617.119	470
626.936	552
636.741	258
646.533	214
656.313	196
666.078	196
675.831	198
685.571	196
695.299	202
705.014	248
714.716	244
724.406	320
734.082	296
743.746	404
753.398	450
763.037	514
772.664	434
782.278	468
791.879	658
801.467	618
811.044	438
820.608	310
830.16	288
839.699	372
849.226	342
858.741	306
868.243	340
877.731	322
887.209	292
896.674	318
906.128	386
915.569	336
924.997	276
934.414	292
943.818	282
953.211	296
962.59	328
971.958	348
981.314	510
990.659	1212
999.99	4296
1009.31	1568
1018.62	482
1027.91	1212
1037.2	1490
1046.47	524
1055.73	410
1064.98	418
1074.22	448
1083.44	446
1092.65	466
1101.86	452
1111.05	366
1120.22	338
1129.39	278
1138.54	338
1147.69	442
1156.82	1004
1165.94	546
1175.05	674
1184.14	1220
1193.23	1164
1202.3	1162
1211.36	764
1220.41	518
1229.45	466
1238.48	406
1247.5	366
1256.5	386
1265.49	380
1274.48	374
1283.45	380
1292.41	414
1301.36	448
1310.29	452
1319.22	490
1328.13	538
1337.04	536
1345.93	432
1354.81	406
1363.68	390
1372.54	388
1381.38	368
1390.22	322
1399.05	278
1407.86	302
1416.66	276
1425.46	292
1434.24	370
1443.01	514
1451.77	632
1460.52	396
1469.25	306
1477.98	310
1486.7	306
1495.4	338
1504.1	304
1512.78	278
1521.45	300
1530.11	292
1538.76	304
1547.41	302
1556.03	314
1564.65	346
1573.26	410
1581.86	838
1590.45	650
1599.02	1210
1607.59	1322
1616.14	514
1624.69	384
1633.22	336
1641.75	338
1650.26	354
1658.76	316
1667.26	306
1675.74	316
1684.21	312
1692.67	326
1701.12	316
1709.56	318
1717.99	298
1726.41	300
1734.82	298
1743.22	304
1751.61	302
1759.99	286
1768.36	308
1776.71	306
1785.06	296
1793.4	312
1801.73	300
1810.04	316
1818.35	302
1826.65	310
1834.94	322
1843.21	300
1851.48	324
1859.74	302
1867.98	320
1876.22	304
1884.45	316
1892.67	298
1900.87	304
1909.07	306
1917.26	312
1925.43	318
1933.6	336
1941.76	304
1949.91	346
1958.05	330
1966.17	314
1974.29	328
1982.4	326
1990.5	336
1998.59	314
2006.67	310
2014.74	336
2022.8	322
2030.85	326
2038.89	328
2046.92	342
2054.94	334
2062.95	336
2070.96	328
2078.95	354
2086.93	322
2094.91	318
2102.87	342
2110.83	332
2118.77	354
2126.71	336
2134.63	358
2142.55	320
2150.46	336
2158.35	342
2166.24	326
2174.12	336
2181.99	356
2189.85	354
2197.7	342
2205.55	356
2213.38	334
2221.2	348
2229.02	352
2236.82	362
2244.62	340
2252.4	362
2260.18	314
2267.95	344
2275.71	336
2283.46	350
2291.2	338
2298.93	336
2306.65	370
2314.37	362
2322.07	352
2329.77	366
2337.45	346
2345.13	336
2352.8	370
2360.46	360
2368.11	362
2375.75	356
2383.38	350
2391.01	358
2398.62	370
2406.23	364
2413.82	348
2421.41	348
2428.99	378
2436.56	356
2444.12	384
2449.79	364

File: ps-ppo-7jan25-1,0000-map3_Y07_X00.txt
182.393	1070
192.79	962
203.174	974
213.542	1064
223.897	1078
234.238	842
244.566	514
254.878	380
265.178	350
275.463	358
285.734	312
295.992	262
306.236	256
316.467	258
326.684	250
336.887	254
347.075	246
357.251	224
367.413	232
377.562	248
387.697	266
397.819	318
407.926	360
418.02	296
428.101	246
438.169	236
448.223	220
458.264	196
468.291	198
478.306	186
488.307	192
498.294	182
508.269	196
518.23	200
528.177	236
538.113	260
548.034	256
557.942	268
567.838	276
577.72	248
587.589	216
597.446	224
607.289	270
617.119	444
626.936	526
636.741	214
646.533	182
656.313	168
666.078	172
675.831	182
685.571	192
695.299	182
705.014	238
714.716	214
724.406	294
734.082	294
743.746	392
753.398	446
763.037	492
772.664	436
782.278	490
791.879	652
801.467	652
811.044	418
820.608	334
830.16	268
839.699	354
849.226	348
858.741	316
868.243	314
877.731	308
887.209	296
896.674	274
906.128	376
915.569	334
924.997	276
934.414	270
943.818	268
953.211	266
962.59	312
971.958	326
981.314	468
990.659	1180
999.99	4264
1009.31	1616
1018.62	444
1027.91	1202
1037.2	1458
1046.47	456
1055.73	404
1064.98	438
1074.22	440
1083.44	438
1092.65	404
1101.86	432
1111.05	372
1120.22	328
1129.39	304
1138.54	296
1147.69	416
1156.82	994
1165.94	522
1175.05	646
1184.14	1238
1193.23	1196
1202.3	1166
1211.36	746
1220.41	468
1229.45	426
1238.48	390
1247.5	380
1256.5	374
1265.49	386
1274.48	352
1283.45	358
1292.41	376
1301.36	424
1310.29	432
1319.22	476
1328.13	568
1337.04	490
1345.93	412
1354.81	380
1363.68	412
1372.54	362
1381.38	364
1390.22	306
1399.05	296
1407.86	264
1416.66	280
1425.46	294
1434.24	352
1443.01	516
1451.77	632
1460.52	408
1469.25	320
1477.98	284
1486.7	304
1495.4	314
1504.1	278
1512.78	278
1521.45	292
1530.11	258
1538.76	310
1547.41	290
1556.03	332
1564.65	344
1573.26	380
1581.86	820
1590.45	624
1599.02	1218
1607.59	1322
1616.14	482
1624.69	372
1633.22	360
1641.75	348
1650.26	352
1658.76	318
1667.26	298
1675.74	284
1684.21	304
1692.67	290
1701.12	314
1709.56	294
1717.99	284
1726.41	284
1734.82	310
1743.22	292
1751.61	286
1759.99	292
1768.36	302
1776.71	288
1785.06	316
1793.4	294
1801.73	300
1810.04	330
1818.35	308
1826.65	314
1834.94	320
1843.21	294
1851.48	306
1859.74	304
1867.98	298
1876.22	326
1884.45	308
1892.67	302
1900.87	306
1909.07	326
1917.26	324
1925.43	340
1933.6	314
1941.76	346
1949.91	282
1958.05	312
1966.17	320
1974.29	324
1982.4	318
1990.5	314
1998.59	314
2006.67	314
2014.74	322
2022.8	324
2030.85	326
2038.89	326
2046.92	326
2054.94	322
2062.95	328
2070.96	318
2078.95	312
2086.93	340
2094.91	308
2102.87	342
2110.83	338
2118.77	338
2126.71	334
2134.63	318
2142.55	332
2150.46	344
2158.35	344
2166.24	326
2174.12	334
2181.99	342
2189.85	316
2197.7	312
2205.55	344
2213.38	340
2221.2	350
2229.02	332
2236.82	326
2244.62	346
2252.4	328
2260.18	330
2267.95	348
2275.71	334
2283.46	334
2291.2	348
2298.93	316
2306.65	356
2314.37	328
2322.07	346
2329.77	340
2337.45	348
2345.13	360
2352.8	350
2360.46	350
2368.11	358
2375.75	352
2383.38	366
2391.01	340
2398.62	336
2406.23	358
2413.82	358
2421.41	360
2428.99	352
2436.56	362
2444.12	350
2449.79	372

File: ps-ppo-7jan25-1,0000-map3_Y07_X04.txt
182.393	1120
192.79	998
203.174	1008
213.542	1118
223.897	1136
234.238	926
244.566	584
254.878	470
265.178	410
275.463	408
285.734	384
295.992	340
306.236	310
316.467	330
326.684	338
336.887	318
347.075	308
357.251	306
367.413	290
377.562	308
387.697	350
397.819	350
407.926	414
418.02	362
428.101	294
438.169	298
448.223	278
458.264	256
468.291	230
478.306	234
488.307	228
498.294	248
508.269	242
518.23	224
528.177	262
538.113	304
548.034	314
557.942	292
567.838	306
577.72	286
587.589	256
597.446	248
607.289	302
617.119	478
626.936	576
636.741	274
646.533	228
656.313	208
666.078	208
675.831	214
685.571	210
695.299	220
705.014	252
714.716	254
724.406	326
734.082	296
743.746	410
753.398	442
763.037	518
772.664	452
782.278	454
791.879	696
801.467	648
811.044	442
820.608	324
830.16	288
839.699	370
849.226	368
858.741	312
868.243	328
877.731	298
887.209	296
896.674	310
906.128	372
915.569	334
924.997	286
934.414	280
943.818	304
953.211	296
962.59	336
971.958	342
981.314	494
990.659	1160
999.99	4244
1009.31	1570
1018.62	504
1027.91	1222
1037.2	1460
1046.47	526
1055.73	402
1064.98	464
1074.22	486
1083.44	454
1092.65	470
1101.86	462
1111.05	380
1120.22	350
1129.39	314
1138.54	320
1147.69	448
1156.82	996
1165.94	558
1175.05	668
1184.14	1262
1193.23	1170
1202.3	1220
1211.36	798
1220.41	528
1229.45	500
1238.48	438
1247.5	420
1256.5	420
1265.49	398
1274.48	390
1283.45	400
1292.41	422
1301.36	472
1310.29	478
1319.22	520
1328.13	570
1337.04	524
1345.93	460
1354.81	416
1363.68	408
1372.54	444
1381.38	394
1390.22	338
1399.05	338
1407.86	326
1416.66	326
1425.46	318
1434.24	370
1443.01	530
1451.77	662
1460.52	448
1469.25	356
1477.98	326
1486.7	344
1495.4	344
1504.1	312
1512.78	312
1521.45	324
1530.11	314
1538.76	308
1547.41	308
1556.03	330
1564.65	352
1573.26	430
1581.86	798
1590.45	648
1599.02	1280
1607.59	1366
1616.14	514
1624.69	406
1633.22	378
1641.75	376
1650.26	396
1658.76	326
1667.26	346
1675.74	332
1684.21	346
1692.67	326
1701.12	320
1709.56	310
1717.99	308
1726.41	332
1734.82	300
1743.22	302
1751.61	312
1759.99	306
1768.36	310
1776.71	306
1785.06	290
1793.4	312
1801.73	306
1810.04	316
1818.35	322
1826.65	324
1834.94	338
1843.21	332
1851.48	322
1859.74	320
1867.98	326
1876.22	292
1884.45	318
1892.67	320
1900.87	322
1909.07	312
1917.26	344
1925.43	336
1933.6	322
1941.76	332
1949.91	324
1958.05	316
1966.17	334
1974.29	310
1982.4	322
1990.5	320
1998.59	312
2006.67	322
2014.74	320
2022.8	326
2030.85	318
2038.89	328
2046.92	318
2054.94	322
2062.95	322
2070.96	312
2078.95	318
2086.93	330
2094.91	334
2102.87	334
2110.83	332
2118.77	342
2126.71	332
2134.63	338
2142.55	326
2150.46	326
2158.35	314
2166.24	324
2174.12	328
2181.99	342
2189.85	354
2197.7	332
2205.55	326
2213.38	312
2221.2	360
2229.02	348
2236.82	322
2244.62	346
2252.4	348
2260.18	356
2267.95	354
2275.71	344
2283.46	346
2291.2	348
2298.93	364
2306.65	348
2314.37	368
2322.07	360
2329.77	332
2337.45	366
2345.13	360
2352.8	326
2360.46	356
2368.11	356
2375.75	356
2383.38	354
2391.01	354
2398.62	346
2406.23	344
2413.82	362
2421.41	374
2428.99	354
2436.56	360
2444.12	348
2449.79	382

File: ps-ppo-7jan25-1,0000-map3_Y07_X05.txt
182.393	1114
192.79	1056
203.174	1052
213.542	1172
223.897	1136
234.238	962
244.566	630
254.878	474
265.178	452
275.463	400
285.734	374
295.992	340
306.236	324
316.467	344
326.684	332
336.887	326
347.075	326
357.251	310
367.413	280
377.562	302
387.697	338
397.819	352
407.926	410
418.02	368
428.101	312
438.169	290
448.223	286
458.264	260
468.291	242
478.306	238
488.307	242
498.294	244
508.269	264
518.23	258
528.177	274
538.113	316
548.034	310
557.942	316
567.838	310
577.72	310
587.589	262
597.446	270
607.289	306
617.119	472
626.936	604
636.741	266
646.533	234
656.313	230
666.078	244
675.831	212
685.571	220
695.299	224
705.014	262
714.716	270
724.406	360
734.082	332
743.746	446
753.398	464
763.037	548
772.664	490
782.278	476
791.879	698
801.467	708
811.044	432
820.608	344
830.16	334
839.699	422
849.226	398
858.741	348
868.243	358
877.731	368
887.209	346
896.674	378
906.128	434
915.569	384
924.997	346
934.414	340
943.818	354
953.211	344
962.59	378
971.958	424
981.314	546
990.659	1284
999.99	4342
1009.31	1620
1018.62	546
1027.91	1266
1037.2	1516
1046.47	580
1055.73	490
1064.98	496
1074.22	554
1083.44	546
1092.65	526
1101.86	524
1111.05	470
1120.22	412
1129.39	364
1138.54	394
1147.69	520
1156.82	1092
1165.94	608
1175.05	736
1184.14	1324
1193.23	1272
1202.3	1288
1211.36	826
1220.41	610
1229.45	542
1238.48	478
1247.5	488
1256.5	474
1265.49	472
1274.48	432
1283.45	450
1292.41	504
1301.36	520
1310.29	530
1319.22	558
1328.13	638
1337.04	604
1345.93	496
1354.81	484
1363.68	498
1372.54	486
1381.38	470
1390.22	394
1399.05	384
1407.86	400
1416.66	356
1425.46	376
1434.24	424
1443.01	612
1451.77	724
1460.52	494
1469.25	388
1477.98	388
1486.7	382
1495.4	404
1504.1	382
1512.78	388
1521.45	382
1530.11	382
1538.76	376
1547.41	382
1556.03	386
1564.65	422
1573.26	460
1581.86	892
1590.45	690
1599.02	1306
1607.59	1376
1616.14	552
1624.69	444
1633.22	394
1641.75	410
1650.26	418
1658.76	380
1667.26	388
1675.74	376
1684.21	362
1692.67	370
1701.12	356
1709.56	358
1717.99	364
1726.41	344
1734.82	348
1743.22	360
1751.61	342
1759.99	336
1768.36	332
1776.71	336
1785.06	358
1793.4	340
1801.73	364
1810.04	346
1818.35	352
1826.65	330
1834.94	352
1843.21	350
1851.48	342
1859.74	338
1867.98	330
1876.22	344
1884.45	326
1892.67	344
1900.87	344
1909.07	350
1917.26	344
1925.43	338
1933.6	330
1941.76	356
1949.91	344
1958.05	342
1966.17	326
1974.29	336
1982.4	332
1990.5	340
1998.59	362
2006.67	334
2014.74	336
2022.8	330
2030.85	356
2038.89	330
2046.92	346
2054.94	330
2062.95	332
2070.96	344
2078.95	342
2086.93	350
2094.91	328
2102.87	334
2110.83	350
2118.77	354
2126.71	346
2134.63	352
2142.55	360
2150.46	340
2158.35	354
2166.24	328
2174.12	330
2181.99	362
2189.85	340
2197.7	364
2205.55	364
2213.38	360
2221.2	346
2229.02	366
2236.82	358
2244.62	336
2252.4	334
2260.18	352
2267.95	352
2275.71	344
2283.46	366
2291.2	356
2298.93	352
2306.65	362
2314.37	332
2322.07	354
2329.77	346
2337.45	360
2345.13	366
2352.8	360
2360.46	362
2368.11	364
2375.75	366
2383.38	358
2391.01	362
2398.62	366
2406.23	376
2413.82	362
2421.41	362
2428.99	376
2436.56	380
2444.12	392
2449.79	370

File: ps-ppo-7jan25-1,0000-map3_Y07_X06.txt
182.393	1034
192.79	938
203.174	968
213.542	1024
223.897	1086
234.238	862
244.566	550
254.878	394
265.178	336
275.463	322
285.734	298
295.992	248
306.236	222
316.467	244
326.684	250
336.887	244
347.075	214
357.251	216
367.413	230
377.562	236
387.697	284
397.819	292
407.926	358
418.02	312
428.101	254
438.169	250
448.223	218
458.264	214
468.291	192
478.306	206
488.307	180
498.294	184
508.269	218
518.23	210
528.177	236
538.113	260
548.034	246
557.942	272
567.838	260
577.72	266
587.589	228
597.446	220
607.289	278
617.119	434
626.936	532
636.741	224
646.533	178
656.313	178
666.078	176
675.831	186
685.571	182
695.299	192
705.014	222
714.716	236
724.406	308
734.082	272
743.746	390
753.398	436
763.037	484
772.664	428
782.278	452
791.879	648
801.467	640
811.044	400
820.608	308
830.16	288
839.699	358
849.226	354
858.741	284
868.243	310
877.731	294
887.209	286
896.674	294
906.128	358
915.569	320
924.997	270
934.414	262
943.818	262
953.211	260
962.59	298
971.958	322
981.314	446
990.659	1154
999.99	4206
1009.31	1574
1018.62	478
1027.91	1170
1037.2	1420
1046.47	506
1055.73	392
1064.98	422
1074.22	434
1083.44	418
1092.65	426
1101.86	426
1111.05	358
1120.22	322
1129.39	282
1138.54	292
1147.69	424
1156.82	1004
1165.94	514
1175.05	626
1184.14	1216
1193.23	1146
1202.3	1120
1211.36	720
1220.41	470
1229.45	426
1238.48	358
1247.5	360
1256.5	334
1265.49	352
1274.48	340
1283.45	352
1292.41	390
1301.36	424
1310.29	412
1319.22	462
1328.13	534
1337.04	498
1345.93	382
1354.81	372
1363.68	382
1372.54	414
1381.38	330
1390.22	288
1399.05	282
1407.86	260
1416.66	284
1425.46	256
1434.24	328
1443.01	466
1451.77	586
1460.52	414
1469.25	294
1477.98	284
1486.7	264
1495.4	314
1504.1	266
1512.78	284
1521.45	276
1530.11	274
1538.76	282
1547.41	268
1556.03	282
1564.65	298
1573.26	374
1581.86	774
1590.45	594
1599.02	1162
1607.59	1264
1616.14	450
1624.69	354
1633.22	318
1641.75	338
1650.26	346
1658.76	284
1667.26	278
1675.74	284
1684.21	286
1692.67	284
1701.12	288
1709.56	274
1717.99	276
1726.41	278
1734.82	288
1743.22	298
1751.61	284
1759.99	260
1768.36	280
1776.71	284
1785.06	260
1793.4	296
1801.73	262
1810.04	278
1818.35	286
1826.65	302
1834.94	306
1843.21	286
1851.48	296
1859.74	302
1867.98	308
1876.22	298
1884.45	298
1892.67	294
1900.87	298
1909.07	310
1917.26	310
1925.43	308
1933.6	312
1941.76	300
1949.91	326
1958.05	312
1966.17	310
1974.29	292
1982.4	314
1990.5	294
1998.59	282
2006.67	302
2014.74	312
2022.8	296
2030.85	308
2038.89	306
2046.92	322
2054.94	316
2062.95	298
2070.96	298
2078.95	326
2086.93	322
2094.91	326
2102.87	338
2110.83	316
2118.77	322
2126.71	324
2134.63	300
2142.55	336
2150.46	310
2158.35	320
2166.24	310
2174.12	296
2181.99	336
2189.85	334
2197.7	340
2205.55	324
2213.38	334
2221.2	326
2229.02	324
2236.82	334
2244.62	334
2252.4	332
2260.18	322
2267.95	326
2275.71	328
2283.46	332
2291.2	324
2298.93	350
2306.65	336
2314.37	336
2322.07	336
2329.77	354
2337.45	316
2345.13	340
2352.8	344
2360.46	338
2368.11	336
2375.75	330
2383.38	344
2391.01	322
2398.62	336
2406.23	358
2413.82	354
2421.41	366
2428.99	354
2436.56	354
2444.12	352
2449.79	366

File: ps-ppo-7jan25-1,0000-map3_Y07_X08.txt
182.393	1080
192.79	948
203.174	966
213.542	1086
223.897	1080
234.238	874
244.566	576
254.878	420
265.178	366
275.463	344
285.734	338
295.992	304
306.236	276
316.467	270
326.684	282
336.887	270
347.075	256
357.251	250
367.413	272
377.562	268
387.697	288
397.819	336
407.926	402
418.02	318
428.101	268
438.169	258
448.223	238
458.264	218
468.291	212
478.306	214
488.307	208
498.294	196
508.269	222
518.23	220
528.177	232
538.113	302
548.034	278
557.942	286
567.838	244
577.72	260
587.589	236
597.446	252
607.289	278
617.119	462
626.936	554
636.741	256
646.533	200
656.313	200
666.078	190
675.831	200
685.571	212
695.299	198
705.014	250
714.716	228
724.406	324
734.082	304
743.746	396
753.398	450
763.037	506
772.664	442
782.278	484
791.879	698
801.467	654
811.044	418
820.608	324
830.16	288
839.699	374
849.226	364
858.741	354
868.243	334
877.731	320
887.209	328
896.674	322
906.128	392
915.569	330
924.997	286
934.414	296
943.818	282
953.211	322
962.59	348
971.958	364
981.314	490
990.659	1230
999.99	4256
1009.31	1612
1018.62	504
1027.91	1196
1037.2	1470
1046.47	526
1055.73	440
1064.98	480
1074.22	470
1083.44	458
1092.65	452
1101.86	460
1111.05	388
1120.22	334
1129.39	334
1138.54	334
1147.69	436
1156.82	1022
1165.94	538
1175.05	662
1184.14	1226
1193.23	1174
1202.3	1176
1211.36	756
1220.41	522
1229.45	452
1238.48	420
1247.5	396
1256.5	388
1265.49	380
1274.48	358
1283.45	378
1292.41	390
1301.36	452
1310.29	456
1319.22	482
1328.13	568
1337.04	522
1345.93	450
1354.81	408
1363.68	386
1372.54	416
1381.38	372
1390.22	294
1399.05	304
1407.86	308
1416.66	280
1425.46	288
1434.24	364
1443.01	518
1451.77	610
1460.52	402
1469.25	316
1477.98	306
1486.7	294
1495.4	320
1504.1	290
1512.78	276
1521.45	282
1530.11	306
1538.76	304
1547.41	314
1556.03	314
1564.65	324
1573.26	402
1581.86	842
1590.45	614
1599.02	1254
1607.59	1312
1616.14	500
1624.69	380
1633.22	320
1641.75	360
1650.26	374
1658.76	324
1667.26	320
1675.74	312
1684.21	314
1692.67	308
1701.12	292
1709.56	300
1717.99	312
1726.41	304
1734.82	300
1743.22	316
1751.61	306
1759.99	298
1768.36	294
1776.71	310
1785.06	318
1793.4	294
1801.73	328
1810.04	312
1818.35	340
1826.65	304
1834.94	294
1843.21	304
1851.48	330
1859.74	314
1867.98	316
1876.22	312
1884.45	304
1892.67	320
1900.87	312
1909.07	304
1917.26	320
1925.43	344
1933.6	308
1941.76	328
1949.91	312
1958.05	326
1966.17	322
1974.29	320
1982.4	328
1990.5	336
1998.59	320
2006.67	328
2014.74	326
2022.8	332
2030.85	332
2038.89	336
2046.92	338
2054.94	314
2062.95	326
2070.96	318
2078.95	310
2086.93	334
2094.91	348
2102.87	352
2110.83	344
2118.77	360
2126.71	366
2134.63	330
2142.55	338
2150.46	348
2158.35	342
2166.24	348
2174.12	350
2181.99	356
2189.85	354
2197.7	340
2205.55	334
2213.38	364
2221.2	342
2229.02	346
2236.82	338
2244.62	340
2252.4	356
2260.18	346
2267.95	350
2275.71	332
2283.46	354
2291.2	352
2298.93	344
2306.65	360
2314.37	344
2322.07	340
2329.77	350
2337.45	350
2345.13	378
2352.8	370
2360.46	358
2368.11	348
2375.75	360
2383.38	356
2391.01	354
2398.62	344
2406.23	350
2413.82	368
2421.41	374
2428.99	362
2436.56	360
2444.12	390
2449.79	384