Folder: NRC_SU25_Spectral_Classification/Jesse_Dataset_v2/Pure Raman/Polystyrene/633nm (part 8)

File: ps-ppo-7jan25-1,0000-map3_Y09_X09.txt
182.393	1008
192.79	944
203.174	934
213.542	1048
223.897	1094
234.238	822
244.566	500
254.878	378
265.178	352
275.463	296
285.734	290
295.992	234
306.236	222
316.467	230
326.684	250
336.887	228
347.075	226
357.251	220
367.413	218
377.562	224
387.697	258
397.819	284
407.926	332
418.02	296
428.101	238
438.169	218
448.223	214
458.264	188
468.291	186
478.306	176
488.307	178
498.294	198
508.269	208
518.23	176
528.177	202
538.113	242
548.034	252
557.942	244
567.838	244
577.72	246
587.589	218
597.446	212
607.289	256
617.119	424
626.936	514
636.741	230
646.533	188
656.313	170
666.078	180
675.831	178
685.571	158
695.299	176
705.014	210
714.716	200
724.406	282
734.082	276
743.746	388
753.398	440
763.037	512
772.664	418
782.278	446
791.879	666
801.467	618
811.044	390
820.608	312
830.16	260
839.699	332
849.226	342
858.741	296
868.243	302
877.731	290
887.209	274
896.674	288
906.128	344
915.569	304
924.997	254
934.414	242
943.818	258
953.211	260
962.59	290
971.958	338
981.314	460
990.659	1174
999.99	4260
1009.31	1560
1018.62	480
1027.91	1174
1037.2	1430
1046.47	476
1055.73	378
1064.98	402
1074.22	440
1083.44	406
1092.65	412
1101.86	420
1111.05	356
1120.22	314
1129.39	272
1138.54	280
1147.69	412
1156.82	976
1165.94	506
1175.05	626
1184.14	1232
1193.23	1140
1202.3	1146
1211.36	734
1220.41	488
1229.45	452
1238.48	370
1247.5	378
1256.5	364
1265.49	366
1274.48	354
1283.45	368
1292.41	372
1301.36	404
1310.29	422
1319.22	476
1328.13	518
1337.04	478
1345.93	376
1354.81	372
1363.68	366
1372.54	388
1381.38	334
1390.22	276
1399.05	270
1407.86	272
1416.66	260
1425.46	274
1434.24	332
1443.01	476
1451.77	608
1460.52	386
1469.25	276
1477.98	262
1486.7	262
1495.4	294
1504.1	258
1512.78	242
1521.45	264
1530.11	272
1538.76	270
1547.41	280
1556.03	302
1564.65	318
1573.26	362
1581.86	836
1590.45	586
1599.02	1272
1607.59	1302
1616.14	470
1624.69	362
1633.22	336
1641.75	320
1650.26	324
1658.76	306
1667.26	306
1675.74	282
1684.21	288
1692.67	288
1701.12	278
1709.56	292
1717.99	274
1726.41	282
1734.82	278
1743.22	278
1751.61	286
1759.99	292
1768.36	274
1776.71	302
1785.06	304
1793.4	294
1801.73	284
1810.04	302
1818.35	302
1826.65	292
1834.94	278
1843.21	308
1851.48	290
1859.74	286
1867.98	308
1876.22	278
1884.45	292
1892.67	286
1900.87	302
1909.07	304
1917.26	316
1925.43	302
1933.6	316
1941.76	310
1949.91	324
1958.05	318
1966.17	312
1974.29	294
1982.4	306
1990.5	314
1998.59	318
2006.67	314
2014.74	310
2022.8	312
2030.85	318
2038.89	330
2046.92	322
2054.94	286
2062.95	342
2070.96	320
2078.95	312
2086.93	330
2094.91	330
2102.87	310
2110.83	308
2118.77	334
2126.71	330
2134.63	338
2142.55	330
2150.46	318
2158.35	334
2166.24	318
2174.12	348
2181.99	324
2189.85	342
2197.7	348
2205.55	324
2213.38	324
2221.2	320
2229.02	322
2236.82	310
2244.62	322
2252.4	334
2260.18	342
2267.95	330
2275.71	332
2283.46	320
2291.2	358
2298.93	334
2306.65	346
2314.37	336
2322.07	346
2329.77	334
2337.45	352
2345.13	348
2352.8	342
2360.46	356
2368.11	344
2375.75	364
2383.38	334
2391.01	350
2398.62	354
2406.23	358
2413.82	384
2421.41	346
2428.99	352
2436.56	354
2444.12	374
2449.79	356

File: ps-ppo-7jan25-1,0000-map3_Y10_X03.txt
182.393	1030
192.79	950
203.174	922
213.542	1052
223.897	1050
234.238	802
244.566	528
254.878	378
265.178	342
275.463	308
285.734	318
295.992	242
306.236	242
316.467	232
326.684	224
336.887	226
347.075	220
357.251	204
367.413	228
377.562	218
387.697	262
397.819	286
407.926	340
418.02	264
428.101	236
438.169	224
448.223	196
458.264	184
468.291	174
478.306	176
488.307	172
498.294	184
508.269	176
518.23	202
528.177	208
538.113	248
548.034	256
557.942	272
567.838	244
577.72	270
587.589	198
597.446	206
607.289	248
617.119	428
626.936	506
636.741	220
646.533	180
656.313	152
666.078	180
675.831	156
685.571	160
695.299	164
705.014	204
714.716	208
724.406	300
734.082	260
743.746	382
753.398	404
763.037	482
772.664	428
782.278	470
791.879	674
801.467	612
811.044	400
820.608	286
830.16	264
839.699	340
849.226	338
858.741	282
868.243	300
877.731	266
887.209	270
896.674	272
906.128	346
915.569	294
924.997	248
934.414	246
943.818	246
953.211	274
962.59	292
971.958	316
981.314	448
990.659	1162
999.99	4274
1009.31	1524
1018.62	472
1027.91	1188
1037.2	1430
1046.47	472
1055.73	384
1064.98	444
1074.22	428
1083.44	408
1092.65	412
1101.86	402
1111.05	362
1120.22	312
1129.39	258
1138.54	282
1147.69	402
1156.82	1000
1165.94	514
1175.05	610
1184.14	1188
1193.23	1138
1202.3	1174
1211.36	704
1220.41	476
1229.45	430
1238.48	392
1247.5	358
1256.5	352
1265.49	346
1274.48	342
1283.45	350
1292.41	350
1301.36	396
1310.29	400
1319.22	454
1328.13	486
1337.04	470
1345.93	378
1354.81	362
1363.68	382
1372.54	374
1381.38	328
1390.22	276
1399.05	264
1407.86	278
1416.66	266
1425.46	254
1434.24	310
1443.01	516
1451.77	588
1460.52	376
1469.25	278
1477.98	262
1486.7	274
1495.4	308
1504.1	274
1512.78	262
1521.45	262
1530.11	254
1538.76	274
1547.41	266
1556.03	296
1564.65	294
1573.26	364
1581.86	822
1590.45	606
1599.02	1236
1607.59	1300
1616.14	480
1624.69	346
1633.22	332
1641.75	326
1650.26	332
1658.76	304
1667.26	280
1675.74	274
1684.21	258
1692.67	280
1701.12	254
1709.56	258
1717.99	264
1726.41	274
1734.82	296
1743.22	266
1751.61	270
1759.99	270
1768.36	262
1776.71	264
1785.06	262
1793.4	284
1801.73	292
1810.04	286
1818.35	288
1826.65	274
1834.94	288
1843.21	280
1851.48	278
1859.74	260
1867.98	282
1876.22	256
1884.45	288
1892.67	290
1900.87	274
1909.07	274
1917.26	298
1925.43	290
1933.6	304
1941.76	298
1949.91	312
1958.05	306
1966.17	298
1974.29	306
1982.4	290
1990.5	290
1998.59	308
2006.67	306
2014.74	270
2022.8	308
2030.85	312
2038.89	300
2046.92	288
2054.94	312
2062.95	306
2070.96	312
2078.95	312
2086.93	304
2094.91	308
2102.87	324
2110.83	312
2118.77	298
2126.71	314
2134.63	316
2142.55	324
2150.46	314
2158.35	342
2166.24	306
2174.12	312
2181.99	304
2189.85	318
2197.7	340
2205.55	318
2213.38	328
2221.2	324
2229.02	312
2236.82	308
2244.62	326
2252.4	320
2260.18	304
2267.95	340
2275.71	336
2283.46	310
2291.2	324
2298.93	322
2306.65	316
2314.37	350
2322.07	348
2329.77	328
2337.45	342
2345.13	338
2352.8	340
2360.46	350
2368.11	342
2375.75	330
2383.38	340
2391.01	344
2398.62	320
2406.23	334
2413.82	332
2421.41	328
2428.99	334
2436.56	326
2444.12	356
2449.79	360

File: ps-ppo-7jan25-1,0000-map3_Y10_X04.txt
182.393	1018
192.79	982
203.174	946
213.542	1060
223.897	1066
234.238	814
244.566	528
254.878	380
265.178	326
275.463	308
285.734	278
295.992	236
306.236	230
316.467	244
326.684	236
336.887	234
347.075	204
357.251	218
367.413	210
377.562	232
387.697	278
397.819	292
407.926	344
418.02	274
428.101	242
438.169	210
448.223	196
458.264	186
468.291	194
478.306	188
488.307	174
498.294	176
508.269	192
518.23	192
528.177	198
538.113	236
548.034	246
557.942	236
567.838	248
577.72	232
587.589	204
597.446	198
607.289	250
617.119	410
626.936	504
636.741	234
646.533	182
656.313	164
666.078	166
675.831	158
685.571	180
695.299	190
705.014	220
714.716	198
724.406	282
734.082	260
743.746	378
753.398	408
763.037	478
772.664	416
782.278	422
791.879	648
801.467	608
811.044	396
820.608	298
830.16	256
839.699	332
849.226	358
858.741	284
868.243	278
877.731	280
887.209	256
896.674	282
906.128	360
915.569	316
924.997	254
934.414	234
943.818	276
953.211	250
962.59	290
971.958	354
981.314	460
990.659	1166
999.99	4194
1009.31	1558
1018.62	476
1027.91	1178
1037.2	1374
1046.47	460
1055.73	414
1064.98	400
1074.22	426
1083.44	430
1092.65	408
1101.86	428
1111.05	338
1120.22	280
1129.39	274
1138.54	304
1147.69	386
1156.82	960
1165.94	504
1175.05	610
1184.14	1184
1193.23	1112
1202.3	1154
1211.36	710
1220.41	482
1229.45	438
1238.48	374
1247.5	348
1256.5	358
1265.49	328
1274.48	326
1283.45	352
1292.41	354
1301.36	400
1310.29	424
1319.22	448
1328.13	510
1337.04	470
1345.93	384
1354.81	350
1363.68	356
1372.54	360
1381.38	334
1390.22	268
1399.05	274
1407.86	268
1416.66	244
1425.46	280
1434.24	306
1443.01	468
1451.77	594
1460.52	352
1469.25	288
1477.98	268
1486.7	252
1495.4	288
1504.1	264
1512.78	232
1521.45	260
1530.11	264
1538.76	240
1547.41	256
1556.03	294
1564.65	302
1573.26	368
1581.86	780
1590.45	628
1599.02	1238
1607.59	1296
1616.14	458
1624.69	340
1633.22	302
1641.75	278
1650.26	318
1658.76	280
1667.26	244
1675.74	276
1684.21	278
1692.67	284
1701.12	274
1709.56	270
1717.99	264
1726.41	268
1734.82	260
1743.22	306
1751.61	292
1759.99	246
1768.36	274
1776.71	284
1785.06	280
1793.4	286
1801.73	270
1810.04	290
1818.35	258
1826.65	276
1834.94	270
1843.21	304
1851.48	280
1859.74	280
1867.98	292
1876.22	288
1884.45	298
1892.67	282
1900.87	298
1909.07	286
1917.26	304
1925.43	284
1933.6	308
1941.76	306
1949.91	280
1958.05	282
1966.17	302
1974.29	302
1982.4	310
1990.5	278
1998.59	300
2006.67	298
2014.74	312
2022.8	300
2030.85	300
2038.89	306
2046.92	330
2054.94	306
2062.95	302
2070.96	300
2078.95	300
2086.93	328
2094.91	310
2102.87	322
2110.83	314
2118.77	314
2126.71	304
2134.63	308
2142.55	332
2150.46	312
2158.35	316
2166.24	306
2174.12	348
2181.99	326
2189.85	312
2197.7	322
2205.55	330
2213.38	318
2221.2	318
2229.02	328
2236.82	328
2244.62	308
2252.4	322
2260.18	336
2267.95	322
2275.71	326
2283.46	342
2291.2	328
2298.93	340
2306.65	344
2314.37	330
2322.07	334
2329.77	338
2337.45	328
2345.13	328
2352.8	334
2360.46	316
2368.11	332
2375.75	308
2383.38	334
2391.01	336
2398.62	346
2406.23	334
2413.82	362
2421.41	350
2428.99	340
2436.56	338
2444.12	350
2449.79	354

File: ps-ppo-7jan25-1,0000-map3_Y10_X07.txt
182.393	1088
192.79	998
203.174	1018
213.542	1104
223.897	1142
234.238	888
244.566	586
254.878	442
265.178	400
275.463	394
285.734	336
295.992	340
306.236	322
316.467	316
326.684	304
336.887	296
347.075	312
357.251	302
367.413	308
377.562	304
387.697	344
397.819	356
407.926	428
418.02	362
428.101	330
438.169	298
448.223	286
458.264	252
468.291	254
478.306	236
488.307	254
498.294	232
508.269	250
518.23	244
528.177	256
538.113	298
548.034	332
557.942	282
567.838	290
577.72	292
587.589	262
597.446	264
607.289	310
617.119	488
626.936	560
636.741	268
646.533	226
656.313	218
666.078	204
675.831	194
685.571	206
695.299	204
705.014	234
714.716	252
724.406	318
734.082	290
743.746	416
753.398	442
763.037	518
772.664	434
782.278	482
791.879	682
801.467	642
811.044	406
820.608	310
830.16	274
839.699	354
849.226	364
858.741	322
868.243	316
877.731	306
887.209	300
896.674	324
906.128	356
915.569	314
924.997	268
934.414	268
943.818	288
953.211	292
962.59	290
971.958	344
981.314	458
990.659	1176
999.99	4304
1009.31	1524
1018.62	468
1027.91	1186
1037.2	1412
1046.47	482
1055.73	392
1064.98	398
1074.22	460
1083.44	446
1092.65	452
1101.86	442
1111.05	368
1120.22	336
1129.39	268
1138.54	310
1147.69	404
1156.82	966
1165.94	516
1175.05	612
1184.14	1214
1193.23	1138
1202.3	1166
1211.36	722
1220.41	498
1229.45	432
1238.48	382
1247.5	376
1256.5	344
1265.49	346
1274.48	366
1283.45	358
1292.41	380
1301.36	398
1310.29	438
1319.22	490
1328.13	528
1337.04	508
1345.93	414
1354.81	378
1363.68	382
1372.54	388
1381.38	358
1390.22	300
1399.05	284
1407.86	290
1416.66	272
1425.46	284
1434.24	354
1443.01	514
1451.77	602
1460.52	384
1469.25	318
1477.98	296
1486.7	306
1495.4	328
1504.1	294
1512.78	298
1521.45	306
1530.11	294
1538.76	308
1547.41	298
1556.03	312
1564.65	318
1573.26	374
1581.86	852
1590.45	632
1599.02	1234
1607.59	1276
1616.14	502
1624.69	404
1633.22	366
1641.75	338
1650.26	386
1658.76	340
1667.26	312
1675.74	328
1684.21	334
1692.67	328
1701.12	312
1709.56	316
1717.99	316
1726.41	304
1734.82	312
1743.22	298
1751.61	294
1759.99	330
1768.36	318
1776.71	316
1785.06	322
1793.4	322
1801.73	318
1810.04	338
1818.35	306
1826.65	322
1834.94	340
1843.21	326
1851.48	324
1859.74	324
1867.98	302
1876.22	304
1884.45	334
1892.67	326
1900.87	332
1909.07	324
1917.26	342
1925.43	326
1933.6	338
1941.76	342
1949.91	318
1958.05	352
1966.17	360
1974.29	308
1982.4	338
1990.5	330
1998.59	324
2006.67	336
2014.74	328
2022.8	350
2030.85	328
2038.89	330
2046.92	354
2054.94	340
2062.95	342
2070.96	342
2078.95	344
2086.93	322
2094.91	344
2102.87	342
2110.83	336
2118.77	344
2126.71	328
2134.63	342
2142.55	336
2150.46	338
2158.35	344
2166.24	342
2174.12	336
2181.99	352
2189.85	332
2197.7	350
2205.55	354
2213.38	342
2221.2	334
2229.02	336
2236.82	344
2244.62	338
2252.4	362
2260.18	336
2267.95	350
2275.71	344
2283.46	330
2291.2	352
2298.93	344
2306.65	344
2314.37	364
2322.07	342
2329.77	366
2337.45	350
2345.13	352
2352.8	332
2360.46	352
2368.11	360
2375.75	332
2383.38	332
2391.01	372
2398.62	342
2406.23	338
2413.82	344
2421.41	352
2428.99	368
2436.56	366
2444.12	360
2449.79	360

File: ps-ppo-7jan25-1,0000-map3_Y10_X08.txt
182.393	1088
192.79	1000
203.174	990
213.542	1072
223.897	1024
234.238	842
244.566	552
254.878	416
265.178	378
275.463	354
285.734	314
295.992	280
306.236	248
316.467	270
326.684	278
336.887	250
347.075	226
357.251	230
367.413	232
377.562	246
387.697	284
397.819	308
407.926	354
418.02	292
428.101	260
438.169	232
448.223	242
458.264	222
468.291	204
478.306	208
488.307	190
498.294	200
508.269	208
518.23	214
528.177	224
538.113	266
548.034	270
557.942	280
567.838	272
577.72	232
587.589	214
597.446	222
607.289	296
617.119	436
626.936	544
636.741	244
646.533	202
656.313	184
666.078	174
675.831	182
685.571	196
695.299	190
705.014	226
714.716	218
724.406	328
734.082	302
743.746	396
753.398	458
763.037	482
772.664	438
782.278	466
791.879	658
801.467	648
811.044	408
820.608	314
830.16	274
839.699	372
849.226	364
858.741	312
868.243	318
877.731	332
887.209	302
896.674	304
906.128	366
915.569	304
924.997	268
934.414	272
943.818	288
953.211	284
962.59	302
971.958	358
981.314	492
990.659	1204
999.99	4344
1009.31	1532
1018.62	504
1027.91	1170
1037.2	1446
1046.47	478
1055.73	428
1064.98	442
1074.22	490
1083.44	448
1092.65	432
1101.86	428
1111.05	364
1120.22	324
1129.39	282
1138.54	322
1147.69	452
1156.82	1014
1165.94	560
1175.05	650
1184.14	1186
1193.23	1140
1202.3	1152
1211.36	738
1220.41	494
1229.45	458
1238.48	394
1247.5	368
1256.5	370
1265.49	390
1274.48	360
1283.45	352
1292.41	380
1301.36	434
1310.29	444
1319.22	478
1328.13	562
1337.04	518
1345.93	430
1354.81	414
1363.68	394
1372.54	388
1381.38	374
1390.22	314
1399.05	294
1407.86	280
1416.66	272
1425.46	284
1434.24	336
1443.01	502
1451.77	622
1460.52	386
1469.25	304
1477.98	302
1486.7	286
1495.4	320
1504.1	306
1512.78	290
1521.45	290
1530.11	298
1538.76	282
1547.41	300
1556.03	284
1564.65	332
1573.26	382
1581.86	836
1590.45	644
1599.02	1250
1607.59	1334
1616.14	484
1624.69	386
1633.22	330
1641.75	348
1650.26	366
1658.76	322
1667.26	316
1675.74	304
1684.21	316
1692.67	314
1701.12	308
1709.56	312
1717.99	292
1726.41	302
1734.82	298
1743.22	298
1751.61	300
1759.99	294
1768.36	288
1776.71	302
1785.06	308
1793.4	326
1801.73	282
1810.04	300
1818.35	322
1826.65	310
1834.94	310
1843.21	310
1851.48	286
1859.74	316
1867.98	314
1876.22	308
1884.45	322
1892.67	296
1900.87	328
1909.07	326
1917.26	314
1925.43	322
1933.6	318
1941.76	326
1949.91	324
1958.05	328
1966.17	334
1974.29	322
1982.4	324
1990.5	314
1998.59	312
2006.67	336
2014.74	320
2022.8	302
2030.85	332
2038.89	314
2046.92	312
2054.94	332
2062.95	322
2070.96	360
2078.95	346
2086.93	330
2094.91	350
2102.87	340
2110.83	348
2118.77	334
2126.71	338
2134.63	350
2142.55	322
2150.46	352
2158.35	328
2166.24	326
2174.12	348
2181.99	360
2189.85	338
2197.7	360
2205.55	348
2213.38	352
2221.2	336
2229.02	342
2236.82	352
2244.62	352
2252.4	354
2260.18	356
2267.95	348
2275.71	330
2283.46	330
2291.2	346
2298.93	354
2306.65	326
2314.37	366
2322.07	366
2329.77	342
2337.45	342
2345.13	360
2352.8	354
2360.46	350
2368.11	378
2375.75	350
2383.38	368
2391.01	340
2398.62	384
2406.23	340
2413.82	358
2421.41	384
2428.99	368
2436.56	342
2444.12	380
2449.79	356