Folder: NRC_SU25_Spectral_Classification/Jesse_Dataset_v2/Pure Raman/Polystyrene/633nm (part 2)

File: ps-ppo-7jan25-1,0000-map3_Y01_X07.txt
182.393	1122
192.79	996
203.174	1054
213.542	1080
223.897	1124
234.238	920
244.566	594
254.878	434
265.178	412
275.463	372
285.734	366
295.992	316
306.236	292
316.467	306
326.684	282
336.887	316
347.075	284
357.251	282
367.413	266
377.562	298
387.697	320
397.819	338
407.926	398
418.02	346
428.101	286
438.169	270
448.223	256
458.264	220
468.291	232
478.306	220
488.307	234
498.294	228
508.269	244
518.23	244
528.177	238
538.113	290
548.034	306
557.942	290
567.838	276
577.72	284
587.589	240
597.446	248
607.289	324
617.119	450
626.936	560
636.741	256
646.533	204
656.313	208
666.078	206
675.831	196
685.571	204
695.299	210
705.014	244
714.716	266
724.406	326
734.082	332
743.746	400
753.398	432
763.037	484
772.664	434
782.278	496
791.879	692
801.467	660
811.044	436
820.608	320
830.16	306
839.699	394
849.226	360
858.741	308
868.243	342
877.731	338
887.209	316
896.674	312
906.128	384
915.569	350
924.997	286
934.414	294
943.818	316
953.211	306
962.59	326
971.958	386
981.314	484
990.659	1206
999.99	4136
1009.31	1642
1018.62	504
1027.91	1240
1037.2	1520
1046.47	542
1055.73	434
1064.98	482
1074.22	494
1083.44	490
1092.65	474
1101.86	470
1111.05	418
1120.22	352
1129.39	346
1138.54	366
1147.69	488
1156.82	1042
1165.94	568
1175.05	684
1184.14	1244
1193.23	1246
1202.3	1258
1211.36	810
1220.41	570
1229.45	500
1238.48	472
1247.5	446
1256.5	412
1265.49	390
1274.48	418
1283.45	432
1292.41	434
1301.36	496
1310.29	494
1319.22	544
1328.13	622
1337.04	562
1345.93	466
1354.81	438
1363.68	450
1372.54	446
1381.38	412
1390.22	360
1399.05	362
1407.86	354
1416.66	318
1425.46	334
1434.24	410
1443.01	568
1451.77	688
1460.52	442
1469.25	366
1477.98	356
1486.7	328
1495.4	378
1504.1	350
1512.78	352
1521.45	344
1530.11	360
1538.76	350
1547.41	324
1556.03	350
1564.65	406
1573.26	430
1581.86	880
1590.45	682
1599.02	1326
1607.59	1358
1616.14	532
1624.69	424
1633.22	376
1641.75	392
1650.26	432
1658.76	384
1667.26	354
1675.74	360
1684.21	346
1692.67	352
1701.12	356
1709.56	338
1717.99	338
1726.41	336
1734.82	336
1743.22	352
1751.61	344
1759.99	308
1768.36	336
1776.71	340
1785.06	342
1793.4	336
1801.73	354
1810.04	354
1818.35	336
1826.65	344
1834.94	336
1843.21	320
1851.48	330
1859.74	330
1867.98	328
1876.22	322
1884.45	348
1892.67	334
1900.87	324
1909.07	358
1917.26	354
1925.43	352
1933.6	342
1941.76	336
1949.91	352
1958.05	344
1966.17	362
1974.29	360
1982.4	344
1990.5	320
1998.59	344
2006.67	318
2014.74	354
2022.8	338
2030.85	328
2038.89	346
2046.92	352
2054.94	372
2062.95	348
2070.96	354
2078.95	350
2086.93	336
2094.91	330
2102.87	366
2110.83	352
2118.77	352
2126.71	362
2134.63	352
2142.55	364
2150.46	352
2158.35	338
2166.24	352
2174.12	372
2181.99	352
2189.85	366
2197.7	348
2205.55	368
2213.38	346
2221.2	364
2229.02	350
2236.82	352
2244.62	354
2252.4	356
2260.18	368
2267.95	350
2275.71	346
2283.46	356
2291.2	352
2298.93	368
2306.65	380
2314.37	368
2322.07	358
2329.77	344
2337.45	384
2345.13	370
2352.8	374
2360.46	376
2368.11	348
2375.75	360
2383.38	374
2391.01	372
2398.62	380
2406.23	382
2413.82	362
2421.41	390
2428.99	376
2436.56	388
2444.12	390
2449.79	392

File: ps-ppo-7jan25-1,0000-map3_Y01_X08.txt
182.393	1040
192.79	948
203.174	934
213.542	1046
223.897	1068
234.238	848
244.566	532
254.878	384
265.178	356
275.463	328
285.734	286
295.992	248
306.236	234
316.467	250
326.684	242
336.887	240
347.075	238
357.251	222
367.413	240
377.562	262
387.697	282
397.819	294
407.926	356
418.02	298
428.101	244
438.169	232
448.223	222
458.264	202
468.291	188
478.306	194
488.307	176
498.294	198
508.269	200
518.23	198
528.177	222
538.113	258
548.034	254
557.942	252
567.838	256
577.72	288
587.589	208
597.446	208
607.289	276
617.119	410
626.936	520
636.741	228
646.533	182
656.313	162
666.078	164
675.831	174
685.571	166
695.299	174
705.014	216
714.716	226
724.406	284
734.082	280
743.746	392
753.398	414
763.037	484
772.664	430
782.278	452
791.879	634
801.467	618
811.044	380
820.608	300
830.16	264
839.699	336
849.226	308
858.741	308
868.243	290
877.731	290
887.209	288
896.674	274
906.128	358
915.569	300
924.997	244
934.414	240
943.818	270
953.211	268
962.59	314
971.958	318
981.314	458
990.659	1138
999.99	4130
1009.31	1556
1018.62	466
1027.91	1186
1037.2	1414
1046.47	498
1055.73	388
1064.98	414
1074.22	450
1083.44	422
1092.65	412
1101.86	416
1111.05	338
1120.22	304
1129.39	270
1138.54	284
1147.69	412
1156.82	1008
1165.94	532
1175.05	632
1184.14	1192
1193.23	1136
1202.3	1156
1211.36	744
1220.41	478
1229.45	430
1238.48	382
1247.5	370
1256.5	360
1265.49	360
1274.48	346
1283.45	348
1292.41	394
1301.36	406
1310.29	428
1319.22	464
1328.13	538
1337.04	512
1345.93	410
1354.81	388
1363.68	386
1372.54	402
1381.38	362
1390.22	294
1399.05	294
1407.86	300
1416.66	266
1425.46	292
1434.24	344
1443.01	500
1451.77	616
1460.52	390
1469.25	316
1477.98	300
1486.7	276
1495.4	324
1504.1	278
1512.78	278
1521.45	284
1530.11	268
1538.76	276
1547.41	304
1556.03	302
1564.65	340
1573.26	378
1581.86	812
1590.45	610
1599.02	1186
1607.59	1296
1616.14	482
1624.69	348
1633.22	352
1641.75	336
1650.26	358
1658.76	314
1667.26	278
1675.74	314
1684.21	306
1692.67	302
1701.12	294
1709.56	290
1717.99	294
1726.41	282
1734.82	282
1743.22	308
1751.61	310
1759.99	274
1768.36	302
1776.71	286
1785.06	284
1793.4	290
1801.73	296
1810.04	312
1818.35	296
1826.65	316
1834.94	298
1843.21	304
1851.48	312
1859.74	292
1867.98	306
1876.22	306
1884.45	326
1892.67	310
1900.87	296
1909.07	340
1917.26	306
1925.43	314
1933.6	320
1941.76	326
1949.91	318
1958.05	308
1966.17	312
1974.29	324
1982.4	318
1990.5	298
1998.59	320
2006.67	288
2014.74	316
2022.8	328
2030.85	332
2038.89	328
2046.92	336
2054.94	334
2062.95	326
2070.96	344
2078.95	320
2086.93	340
2094.91	326
2102.87	342
2110.83	338
2118.77	356
2126.71	330
2134.63	320
2142.55	346
2150.46	342
2158.35	344
2166.24	346
2174.12	352
2181.99	334
2189.85	328
2197.7	346
2205.55	348
2213.38	334
2221.2	346
2229.02	342
2236.82	348
2244.62	342
2252.4	336
2260.18	344
2267.95	358
2275.71	360
2283.46	356
2291.2	366
2298.93	356
2306.65	360
2314.37	344
2322.07	348
2329.77	358
2337.45	352
2345.13	354
2352.8	352
2360.46	362
2368.11	354
2375.75	358
2383.38	354
2391.01	356
2398.62	364
2406.23	354
2413.82	358
2421.41	380
2428.99	368
2436.56	390
2444.12	376
2449.79	384

File: ps-ppo-7jan25-1,0000-map3_Y01_X09.txt
182.393	1002
192.79	952
203.174	976
213.542	1016
223.897	1072
234.238	842
244.566	518
254.878	388
265.178	322
275.463	340
285.734	284
295.992	260
306.236	250
316.467	230
326.684	248
336.887	238
347.075	224
357.251	216
367.413	220
377.562	234
387.697	278
397.819	284
407.926	358
418.02	276
428.101	256
438.169	234
448.223	212
458.264	186
468.291	158
478.306	174
488.307	192
498.294	184
508.269	204
518.23	198
528.177	212
538.113	260
548.034	256
557.942	248
567.838	258
577.72	260
587.589	214
597.446	210
607.289	262
617.119	428
626.936	542
636.741	216
646.533	184
656.313	182
666.078	176
675.831	166
685.571	178
695.299	178
705.014	220
714.716	224
724.406	280
734.082	280
743.746	360
753.398	392
763.037	462
772.664	420
782.278	446
791.879	638
801.467	636
811.044	382
820.608	298
830.16	272
839.699	370
849.226	344
858.741	308
868.243	282
877.731	298
887.209	282
896.674	288
906.128	372
915.569	304
924.997	256
934.414	266
943.818	264
953.211	282
962.59	296
971.958	334
981.314	464
990.659	1192
999.99	4234
1009.31	1582
1018.62	456
1027.91	1184
1037.2	1452
1046.47	506
1055.73	390
1064.98	402
1074.22	466
1083.44	430
1092.65	454
1101.86	422
1111.05	370
1120.22	312
1129.39	306
1138.54	306
1147.69	436
1156.82	964
1165.94	508
1175.05	630
1184.14	1230
1193.23	1146
1202.3	1164
1211.36	764
1220.41	484
1229.45	442
1238.48	392
1247.5	362
1256.5	384
1265.49	370
1274.48	348
1283.45	354
1292.41	392
1301.36	424
1310.29	426
1319.22	486
1328.13	544
1337.04	502
1345.93	442
1354.81	400
1363.68	398
1372.54	404
1381.38	368
1390.22	282
1399.05	282
1407.86	302
1416.66	286
1425.46	286
1434.24	324
1443.01	502
1451.77	636
1460.52	414
1469.25	296
1477.98	296
1486.7	288
1495.4	330
1504.1	292
1512.78	294
1521.45	274
1530.11	288
1538.76	292
1547.41	292
1556.03	302
1564.65	328
1573.26	398
1581.86	808
1590.45	594
1599.02	1228
1607.59	1340
1616.14	518
1624.69	388
1633.22	334
1641.75	328
1650.26	354
1658.76	332
1667.26	314
1675.74	318
1684.21	306
1692.67	312
1701.12	290
1709.56	292
1717.99	302
1726.41	294
1734.82	308
1743.22	310
1751.61	312
1759.99	316
1768.36	312
1776.71	310
1785.06	296
1793.4	312
1801.73	318
1810.04	316
1818.35	312
1826.65	322
1834.94	306
1843.21	312
1851.48	296
1859.74	300
1867.98	312
1876.22	302
1884.45	308
1892.67	336
1900.87	318
1909.07	310
1917.26	312
1925.43	342
1933.6	320
1941.76	324
1949.91	326
1958.05	354
1966.17	326
1974.29	302
1982.4	340
1990.5	334
1998.59	348
2006.67	338
2014.74	324
2022.8	340
2030.85	322
2038.89	334
2046.92	324
2054.94	340
2062.95	326
2070.96	320
2078.95	354
2086.93	340
2094.91	350
2102.87	358
2110.83	334
2118.77	346
2126.71	362
2134.63	354
2142.55	348
2150.46	330
2158.35	356
2166.24	342
2174.12	332
2181.99	360
2189.85	346
2197.7	338
2205.55	352
2213.38	352
2221.2	324
2229.02	368
2236.82	338
2244.62	350
2252.4	368
2260.18	352
2267.95	340
2275.71	354
2283.46	354
2291.2	378
2298.93	354
2306.65	372
2314.37	378
2322.07	362
2329.77	356
2337.45	368
2345.13	352
2352.8	362
2360.46	358
2368.11	382
2375.75	372
2383.38	380
2391.01	368
2398.62	390
2406.23	368
2413.82	390
2421.41	382
2428.99	370
2436.56	380
2444.12	386
2449.79	394

File: ps-ppo-7jan25-1,0000-map3_Y01_X10.txt
182.393	1034
192.79	932
203.174	920
213.542	1050
223.897	1106
234.238	822
244.566	538
254.878	396
265.178	338
275.463	320
285.734	284
295.992	252
306.236	226
316.467	254
326.684	236
336.887	226
347.075	226
357.251	214
367.413	226
377.562	260
387.697	250
397.819	290
407.926	356
418.02	298
428.101	246
438.169	232
448.223	212
458.264	192
468.291	178
478.306	194
488.307	168
498.294	184
508.269	198
518.23	184
528.177	224
538.113	260
548.034	268
557.942	250
567.838	252
577.72	256
587.589	226
597.446	216
607.289	268
617.119	416
626.936	552
636.741	224
646.533	186
656.313	162
666.078	190
675.831	176
685.571	186
695.299	192
705.014	234
714.716	234
724.406	294
734.082	262
743.746	390
753.398	406
763.037	486
772.664	436
782.278	470
791.879	624
801.467	626
811.044	390
820.608	276
830.16	262
839.699	356
849.226	332
858.741	308
868.243	308
877.731	304
887.209	286
896.674	284
906.128	366
915.569	298
924.997	250
934.414	260
943.818	266
953.211	274
962.59	322
971.958	330
981.314	468
990.659	1162
999.99	4214
1009.31	1604
1018.62	464
1027.91	1186
1037.2	1444
1046.47	490
1055.73	402
1064.98	442
1074.22	446
1083.44	430
1092.65	414
1101.86	416
1111.05	372
1120.22	314
1129.39	286
1138.54	300
1147.69	420
1156.82	960
1165.94	530
1175.05	640
1184.14	1226
1193.23	1122
1202.3	1140
1211.36	746
1220.41	486
1229.45	470
1238.48	386
1247.5	352
1256.5	354
1265.49	368
1274.48	358
1283.45	362
1292.41	388
1301.36	420
1310.29	422
1319.22	498
1328.13	534
1337.04	504
1345.93	424
1354.81	386
1363.68	384
1372.54	392
1381.38	362
1390.22	294
1399.05	282
1407.86	300
1416.66	278
1425.46	286
1434.24	324
1443.01	496
1451.77	630
1460.52	388
1469.25	288
1477.98	290
1486.7	302
1495.4	322
1504.1	288
1512.78	286
1521.45	278
1530.11	278
1538.76	296
1547.41	306
1556.03	310
1564.65	326
1573.26	390
1581.86	764
1590.45	602
1599.02	1228
1607.59	1298
1616.14	490
1624.69	382
1633.22	330
1641.75	340
1650.26	352
1658.76	316
1667.26	288
1675.74	308
1684.21	306
1692.67	320
1701.12	274
1709.56	310
1717.99	298
1726.41	282
1734.82	292
1743.22	296
1751.61	286
1759.99	284
1768.36	300
1776.71	288
1785.06	316
1793.4	302
1801.73	306
1810.04	294
1818.35	330
1826.65	306
1834.94	300
1843.21	308
1851.48	282
1859.74	282
1867.98	310
1876.22	328
1884.45	292
1892.67	320
1900.87	314
1909.07	328
1917.26	328
1925.43	334
1933.6	334
1941.76	328
1949.91	324
1958.05	334
1966.17	320
1974.29	338
1982.4	304
1990.5	326
1998.59	320
2006.67	326
2014.74	324
2022.8	322
2030.85	340
2038.89	342
2046.92	348
2054.94	326
2062.95	342
2070.96	338
2078.95	348
2086.93	344
2094.91	338
2102.87	344
2110.83	358
2118.77	352
2126.71	350
2134.63	322
2142.55	324
2150.46	350
2158.35	342
2166.24	344
2174.12	336
2181.99	346
2189.85	362
2197.7	352
2205.55	346
2213.38	350
2221.2	346
2229.02	352
2236.82	360
2244.62	348
2252.4	360
2260.18	362
2267.95	362
2275.71	360
2283.46	386
2291.2	354
2298.93	366
2306.65	350
2314.37	382
2322.07	370
2329.77	352
2337.45	350
2345.13	374
2352.8	368
2360.46	368
2368.11	378
2375.75	356
2383.38	364
2391.01	378
2398.62	376
2406.23	378
2413.82	356
2421.41	362
2428.99	376
2436.56	364
2444.12	384
2449.79	398

File: ps-ppo-7jan25-1,0000-map3_Y02_X01.txt
182.393	1046
192.79	1004
203.174	966
213.542	1088
223.897	1080
234.238	850
244.566	566
254.878	394
265.178	380
275.463	348
285.734	300
295.992	274
306.236	262
316.467	254
326.684	246
336.887	260
347.075	254
357.251	228
367.413	242
377.562	260
387.697	274
397.819	298
407.926	388
418.02	300
428.101	262
438.169	228
448.223	230
458.264	194
468.291	188
478.306	202
488.307	190
498.294	194
508.269	222
518.23	214
528.177	238
538.113	262
548.034	278
557.942	266
567.838	278
577.72	280
587.589	234
597.446	222
607.289	292
617.119	434
626.936	560
636.741	254
646.533	202
656.313	188
666.078	200
675.831	190
685.571	184
695.299	200
705.014	228
714.716	240
724.406	302
734.082	284
743.746	430
753.398	454
763.037	498
772.664	414
782.278	480
791.879	650
801.467	670
811.044	442
820.608	318
830.16	290
839.699	354
849.226	368
858.741	336
868.243	322
877.731	332
887.209	316
896.674	310
906.128	386
915.569	340
924.997	284
934.414	284
943.818	322
953.211	306
962.59	336
971.958	372
981.314	512
990.659	1200
999.99	4190
1009.31	1610
1018.62	518
1027.91	1216
1037.2	1496
1046.47	506
1055.73	462
1064.98	466
1074.22	498
1083.44	468
1092.65	480
1101.86	484
1111.05	410
1120.22	330
1129.39	338
1138.54	334
1147.69	438
1156.82	1028
1165.94	552
1175.05	644
1184.14	1264
1193.23	1144
1202.3	1174
1211.36	764
1220.41	526
1229.45	494
1238.48	412
1247.5	402
1256.5	370
1265.49	398
1274.48	386
1283.45	382
1292.41	408
1301.36	420
1310.29	444
1319.22	492
1328.13	540
1337.04	520
1345.93	410
1354.81	388
1363.68	384
1372.54	398
1381.38	368
1390.22	316
1399.05	298
1407.86	302
1416.66	284
1425.46	284
1434.24	332
1443.01	526
1451.77	630
1460.52	402
1469.25	302
1477.98	312
1486.7	292
1495.4	308
1504.1	280
1512.78	276
1521.45	294
1530.11	278
1538.76	278
1547.41	290
1556.03	306
1564.65	314
1573.26	370
1581.86	792
1590.45	622
1599.02	1184
1607.59	1318
1616.14	470
1624.69	374
1633.22	312
1641.75	350
1650.26	362
1658.76	312
1667.26	304
1675.74	302
1684.21	294
1692.67	280
1701.12	304
1709.56	302
1717.99	314
1726.41	298
1734.82	292
1743.22	294
1751.61	302
1759.99	288
1768.36	282
1776.71	294
1785.06	288
1793.4	304
1801.73	304
1810.04	312
1818.35	310
1826.65	294
1834.94	308
1843.21	282
1851.48	298
1859.74	294
1867.98	278
1876.22	314
1884.45	318
1892.67	302
1900.87	310
1909.07	288
1917.26	312
1925.43	308
1933.6	318
1941.76	314
1949.91	316
1958.05	324
1966.17	336
1974.29	320
1982.4	328
1990.5	322
1998.59	314
2006.67	312
2014.74	330
2022.8	330
2030.85	314
2038.89	336
2046.92	314
2054.94	322
2062.95	328
2070.96	334
2078.95	334
2086.93	322
2094.91	326
2102.87	318
2110.83	336
2118.77	350
2126.71	314
2134.63	314
2142.55	332
2150.46	344
2158.35	344
2166.24	342
2174.12	328
2181.99	352
2189.85	338
2197.7	324
2205.55	348
2213.38	332
2221.2	352
2229.02	358
2236.82	338
2244.62	326
2252.4	354
2260.18	356
2267.95	358
2275.71	346
2283.46	330
2291.2	368
2298.93	342
2306.65	350
2314.37	344
2322.07	348
2329.77	338
2337.45	348
2345.13	330
2352.8	366
2360.46	358
2368.11	350
2375.75	354
2383.38	350
2391.01	362
2398.62	358
2406.23	384
2413.82	346
2421.41	356
2428.99	370
2436.56	344
2444.12	370
2449.79	376

File: ps-ppo-7jan25-1,0000-map3_Y02_X03.txt
182.393	1040
192.79	952
203.174	968
213.542	1046
223.897	1054
234.238	848
244.566	534
254.878	358
265.178	346
275.463	318
285.734	288
295.992	250
306.236	242
316.467	246
326.684	236
336.887	244
347.075	228
357.251	216
367.413	222
377.562	226
387.697	246
397.819	290
407.926	358
418.02	296
428.101	246
438.169	214
448.223	216
458.264	194
468.291	194
478.306	190
488.307	158
498.294	180
508.269	200
518.23	198
528.177	212
538.113	248
548.034	262
557.942	248
567.838	254
577.72	248
587.589	218
597.446	206
607.289	256
617.119	410
626.936	520
636.741	236
646.533	186
656.313	172
666.078	176
675.831	162
685.571	166
695.299	180
705.014	214
714.716	224
724.406	278
734.082	276
743.746	374
753.398	396
763.037	476
772.664	418
782.278	462
791.879	614
801.467	628
811.044	382
820.608	282
830.16	266
839.699	334
849.226	320
858.741	290
868.243	300
877.731	284
887.209	266
896.674	282
906.128	338
915.569	314
924.997	250
934.414	244
943.818	248
953.211	264
962.59	318
971.958	314
981.314	458
990.659	1130
999.99	4146
1009.31	1606
1018.62	448
1027.91	1200
1037.2	1424
1046.47	452
1055.73	382
1064.98	410
1074.22	438
1083.44	432
1092.65	408
1101.86	406
1111.05	360
1120.22	300
1129.39	268
1138.54	298
1147.69	398
1156.82	978
1165.94	508
1175.05	644
1184.14	1182
1193.23	1098
1202.3	1124
1211.36	728
1220.41	474
1229.45	434
1238.48	352
1247.5	344
1256.5	336
1265.49	332
1274.48	346
1283.45	354
1292.41	368
1301.36	388
1310.29	424
1319.22	468
1328.13	514
1337.04	492
1345.93	406
1354.81	378
1363.68	364
1372.54	378
1381.38	344
1390.22	264
1399.05	268
1407.86	270
1416.66	264
1425.46	268
1434.24	312
1443.01	488
1451.77	600
1460.52	366
1469.25	282
1477.98	284
1486.7	268
1495.4	294
1504.1	262
1512.78	272
1521.45	250
1530.11	276
1538.76	264
1547.41	288
1556.03	284
1564.65	288
1573.26	364
1581.86	794
1590.45	604
1599.02	1222
1607.59	1318
1616.14	482
1624.69	382
1633.22	306
1641.75	300
1650.26	320
1658.76	282
1667.26	284
1675.74	290
1684.21	284
1692.67	284
1701.12	276
1709.56	292
1717.99	264
1726.41	278
1734.82	272
1743.22	282
1751.61	276
1759.99	274
1768.36	272
1776.71	272
1785.06	288
1793.4	288
1801.73	292
1810.04	276
1818.35	292
1826.65	276
1834.94	278
1843.21	294
1851.48	280
1859.74	296
1867.98	288
1876.22	282
1884.45	276
1892.67	298
1900.87	282
1909.07	296
1917.26	302
1925.43	298
1933.6	290
1941.76	314
1949.91	316
1958.05	304
1966.17	304
1974.29	294
1982.4	292
1990.5	304
1998.59	286
2006.67	310
2014.74	282
2022.8	308
2030.85	324
2038.89	304
2046.92	306
2054.94	316
2062.95	316
2070.96	308
2078.95	308
2086.93	322
2094.91	334
2102.87	326
2110.83	326
2118.77	324
2126.71	318
2134.63	336
2142.55	328
2150.46	332
2158.35	328
2166.24	330
2174.12	346
2181.99	324
2189.85	330
2197.7	316
2205.55	334
2213.38	330
2221.2	322
2229.02	320
2236.82	334
2244.62	336
2252.4	334
2260.18	338
2267.95	326
2275.71	326
2283.46	338
2291.2	328
2298.93	344
2306.65	322
2314.37	350
2322.07	332
2329.77	350
2337.45	334
2345.13	316
2352.8	344
2360.46	342
2368.11	334
2375.75	336
2383.38	352
2391.01	342
2398.62	342
2406.23	352
2413.82	348
2421.41	358
2428.99	350
2436.56	358
2444.12	374
2449.79	358

File: ps-ppo-7jan25-1,0000-map3_Y02_X06.txt
182.393	1000
192.79	940
203.174	920
213.542	1018
223.897	1062
234.238	868
244.566	502
254.878	366
265.178	336
275.463	320
285.734	296
295.992	248
306.236	248
316.467	240
326.684	262
336.887	244
347.075	244
357.251	228
367.413	222
377.562	250
387.697	280
397.819	296
407.926	376
418.02	292
428.101	264
438.169	232
448.223	218
458.264	212
468.291	188
478.306	202
488.307	194
498.294	208
508.269	202
518.23	220
528.177	248
538.113	278
548.034	284
557.942	268
567.838	270
577.72	270
587.589	228
597.446	238
607.289	290
617.119	436
626.936	552
636.741	244
646.533	226
656.313	196
666.078	194
675.831	200
685.571	210
695.299	192
705.014	250
714.716	228
724.406	322
734.082	326
743.746	418
753.398	436
763.037	502
772.664	476
782.278	490
791.879	682
801.467	636
811.044	406
820.608	330
830.16	298
839.699	360
849.226	362
858.741	320
868.243	324
877.731	326
887.209	308
896.674	302
906.128	366
915.569	326
924.997	264
934.414	286
943.818	276
953.211	294
962.59	308
971.958	340
981.314	456
990.659	1176
999.99	4224
1009.31	1584
1018.62	460
1027.91	1200
1037.2	1410
1046.47	522
1055.73	404
1064.98	418
1074.22	422
1083.44	458
1092.65	404
1101.86	438
1111.05	360
1120.22	330
1129.39	276
1138.54	298
1147.69	410
1156.82	990
1165.94	554
1175.05	632
1184.14	1192
1193.23	1136
1202.3	1164
1211.36	720
1220.41	498
1229.45	450
1238.48	382
1247.5	360
1256.5	362
1265.49	358
1274.48	342
1283.45	348
1292.41	388
1301.36	418
1310.29	430
1319.22	476
1328.13	548
1337.04	488
1345.93	390
1354.81	376
1363.68	380
1372.54	404
1381.38	364
1390.22	288
1399.05	276
1407.86	274
1416.66	272
1425.46	272
1434.24	320
1443.01	492
1451.77	608
1460.52	368
1469.25	300
1477.98	286
1486.7	258
1495.4	300
1504.1	264
1512.78	260
1521.45	270
1530.11	282
1538.76	280
1547.41	290
1556.03	312
1564.65	306
1573.26	366
1581.86	826
1590.45	620
1599.02	1208
1607.59	1316
1616.14	486
1624.69	362
1633.22	302
1641.75	336
1650.26	350
1658.76	302
1667.26	284
1675.74	300
1684.21	292
1692.67	284
1701.12	302
1709.56	286
1717.99	286
1726.41	278
1734.82	294
1743.22	286
1751.61	272
1759.99	284
1768.36	284
1776.71	306
1785.06	270
1793.4	284
1801.73	296
1810.04	322
1818.35	316
1826.65	312
1834.94	302
1843.21	310
1851.48	312
1859.74	300
1867.98	308
1876.22	298
1884.45	300
1892.67	294
1900.87	284
1909.07	324
1917.26	304
1925.43	310
1933.6	328
1941.76	308
1949.91	310
1958.05	320
1966.17	312
1974.29	316
1982.4	320
1990.5	318
1998.59	306
2006.67	320
2014.74	328
2022.8	328
2030.85	338
2038.89	328
2046.92	332
2054.94	330
2062.95	318
2070.96	340
2078.95	332
2086.93	320
2094.91	320
2102.87	332
2110.83	348
2118.77	340
2126.71	340
2134.63	340
2142.55	344
2150.46	330
2158.35	360
2166.24	342
2174.12	318
2181.99	350
2189.85	332
2197.7	348
2205.55	346
2213.38	356
2221.2	348
2229.02	334
2236.82	334
2244.62	342
2252.4	348
2260.18	350
2267.95	336
2275.71	346
2283.46	342
2291.2	332
2298.93	352
2306.65	370
2314.37	376
2322.07	346
2329.77	346
2337.45	354
2345.13	366
2352.8	352
2360.46	370
2368.11	350
2375.75	356
2383.38	354
2391.01	350
2398.62	380
2406.23	374
2413.82	366
2421.41	342
2428.99	372
2436.56	354
2444.12	376
2449.79	376

File: ps-ppo-7jan25-1,0000-map3_Y02_X09.txt
182.393	1146
192.79	1062
203.174	1036
213.542	1178
223.897	1188
234.238	948
244.566	610
254.878	466
265.178	462
275.463	416
285.734	372
295.992	364
306.236	338
316.467	334
326.684	354
336.887	354
347.075	330
357.251	322
367.413	348
377.562	348
387.697	358
397.819	386
407.926	450
418.02	398
428.101	364
438.169	324
448.223	300
458.264	288
468.291	268
478.306	284
488.307	282
498.294	268
508.269	280
518.23	300
528.177	290
538.113	346
548.034	336
557.942	348
567.838	348
577.72	342
587.589	298
597.446	308
607.289	360
617.119	512
626.936	612
636.741	304
646.533	258
656.313	248
666.078	238
675.831	240
685.571	250
695.299	254
705.014	282
714.716	280
724.406	354
734.082	348
743.746	454
753.398	492
763.037	550
772.664	482
782.278	528
791.879	702
801.467	654
811.044	458
820.608	318
830.16	310
839.699	388
849.226	390
858.741	326
868.243	330
877.731	322
887.209	298
896.674	320
906.128	396
915.569	356
924.997	304
934.414	288
943.818	284
953.211	312
962.59	334
971.958	364
981.314	510
990.659	1200
999.99	4228
1009.31	1570
1018.62	486
1027.91	1218
1037.2	1462
1046.47	530
1055.73	450
1064.98	414
1074.22	472
1083.44	454
1092.65	458
1101.86	458
1111.05	398
1120.22	330
1129.39	304
1138.54	316
1147.69	448
1156.82	1006
1165.94	538
1175.05	638
1184.14	1230
1193.23	1164
1202.3	1154
1211.36	774
1220.41	548
1229.45	482
1238.48	410
1247.5	396
1256.5	390
1265.49	388
1274.48	374
1283.45	394
1292.41	402
1301.36	446
1310.29	458
1319.22	522
1328.13	564
1337.04	544
1345.93	466
1354.81	402
1363.68	402
1372.54	450
1381.38	400
1390.22	308
1399.05	296
1407.86	324
1416.66	296
1425.46	316
1434.24	400
1443.01	524
1451.77	664
1460.52	456
1469.25	348
1477.98	318
1486.7	304
1495.4	352
1504.1	312
1512.78	288
1521.45	324
1530.11	334
1538.76	340
1547.41	332
1556.03	334
1564.65	360
1573.26	418
1581.86	842
1590.45	652
1599.02	1230
1607.59	1372
1616.14	540
1624.69	420
1633.22	380
1641.75	390
1650.26	366
1658.76	334
1667.26	352
1675.74	336
1684.21	332
1692.67	334
1701.12	336
1709.56	316
1717.99	320
1726.41	340
1734.82	316
1743.22	334
1751.61	330
1759.99	332
1768.36	326
1776.71	312
1785.06	316
1793.4	332
1801.73	336
1810.04	332
1818.35	326
1826.65	322
1834.94	348
1843.21	340
1851.48	308
1859.74	344
1867.98	332
1876.22	336
1884.45	334
1892.67	324
1900.87	322
1909.07	324
1917.26	370
1925.43	352
1933.6	370
1941.76	332
1949.91	350
1958.05	336
1966.17	342
1974.29	338
1982.4	350
1990.5	330
1998.59	352
2006.67	340
2014.74	332
2022.8	350
2030.85	358
2038.89	332
2046.92	334
2054.94	354
2062.95	342
2070.96	356
2078.95	364
2086.93	338
2094.91	370
2102.87	340
2110.83	342
2118.77	352
2126.71	354
2134.63	354
2142.55	346
2150.46	342
2158.35	352
2166.24	346
2174.12	356
2181.99	354
2189.85	348
2197.7	356
2205.55	360
2213.38	352
2221.2	346
2229.02	364
2236.82	352
2244.62	370
2252.4	344
2260.18	358
2267.95	344
2275.71	352
2283.46	352
2291.2	370
2298.93	336
2306.65	372
2314.37	376
2322.07	378
2329.77	344
2337.45	372
2345.13	358
2352.8	350
2360.46	396
2368.11	348
2375.75	372
2383.38	372
2391.01	360
2398.62	350
2406.23	368
2413.82	368
2421.41	376
2428.99	378
2436.56	360
2444.12	342
2449.79	378