Folder: NRC_SU25_Spectral_Classification/Jesse_Dataset_v2/Pure Raman/Polystyrene/633nm (part 3)

File: ps-ppo-7jan25-1,0000-map3_Y03_X01.txt
182.393	1032
192.79	940
203.174	938
213.542	1046
223.897	1044
234.238	820
244.566	510
254.878	410
265.178	332
275.463	318
285.734	282
295.992	240
306.236	242
316.467	224
326.684	232
336.887	242
347.075	228
357.251	222
367.413	212
377.562	234
387.697	258
397.819	294
407.926	334
418.02	278
428.101	254
438.169	210
448.223	196
458.264	184
468.291	172
478.306	180
488.307	158
498.294	180
508.269	184
518.23	198
528.177	218
538.113	254
548.034	240
557.942	236
567.838	248
577.72	234
587.589	214
597.446	188
607.289	256
617.119	388
626.936	528
636.741	216
646.533	176
656.313	170
666.078	156
675.831	162
685.571	170
695.299	166
705.014	190
714.716	196
724.406	278
734.082	270
743.746	366
753.398	400
763.037	464
772.664	396
782.278	448
791.879	632
801.467	598
811.044	372
820.608	294
830.16	256
839.699	326
849.226	328
858.741	286
868.243	308
877.731	282
887.209	274
896.674	282
906.128	342
915.569	280
924.997	248
934.414	240
943.818	248
953.211	246
962.59	282
971.958	306
981.314	432
990.659	1172
999.99	4172
1009.31	1546
1018.62	426
1027.91	1166
1037.2	1402
1046.47	486
1055.73	378
1064.98	388
1074.22	418
1083.44	390
1092.65	416
1101.86	410
1111.05	342
1120.22	298
1129.39	258
1138.54	302
1147.69	392
1156.82	972
1165.94	506
1175.05	614
1184.14	1212
1193.23	1106
1202.3	1152
1211.36	720
1220.41	468
1229.45	402
1238.48	378
1247.5	356
1256.5	338
1265.49	324
1274.48	354
1283.45	348
1292.41	358
1301.36	408
1310.29	404
1319.22	438
1328.13	540
1337.04	470
1345.93	392
1354.81	372
1363.68	356
1372.54	374
1381.38	334
1390.22	276
1399.05	246
1407.86	274
1416.66	264
1425.46	266
1434.24	326
1443.01	482
1451.77	582
1460.52	380
1469.25	286
1477.98	284
1486.7	260
1495.4	284
1504.1	252
1512.78	242
1521.45	274
1530.11	268
1538.76	278
1547.41	268
1556.03	276
1564.65	310
1573.26	368
1581.86	802
1590.45	584
1599.02	1252
1607.59	1272
1616.14	454
1624.69	354
1633.22	302
1641.75	324
1650.26	344
1658.76	290
1667.26	276
1675.74	290
1684.21	288
1692.67	300
1701.12	266
1709.56	290
1717.99	286
1726.41	276
1734.82	270
1743.22	282
1751.61	268
1759.99	276
1768.36	274
1776.71	284
1785.06	292
1793.4	282
1801.73	282
1810.04	294
1818.35	280
1826.65	282
1834.94	284
1843.21	282
1851.48	272
1859.74	292
1867.98	264
1876.22	282
1884.45	294
1892.67	278
1900.87	288
1909.07	316
1917.26	304
1925.43	302
1933.6	290
1941.76	306
1949.91	292
1958.05	300
1966.17	280
1974.29	286
1982.4	308
1990.5	312
1998.59	302
2006.67	314
2014.74	304
2022.8	306
2030.85	320
2038.89	322
2046.92	300
2054.94	314
2062.95	296
2070.96	322
2078.95	324
2086.93	300
2094.91	314
2102.87	308
2110.83	312
2118.77	314
2126.71	324
2134.63	310
2142.55	308
2150.46	326
2158.35	340
2166.24	320
2174.12	326
2181.99	322
2189.85	312
2197.7	324
2205.55	324
2213.38	326
2221.2	350
2229.02	322
2236.82	340
2244.62	328
2252.4	320
2260.18	334
2267.95	324
2275.71	330
2283.46	328
2291.2	320
2298.93	322
2306.65	332
2314.37	360
2322.07	326
2329.77	326
2337.45	340
2345.13	354
2352.8	344
2360.46	334
2368.11	336
2375.75	344
2383.38	358
2391.01	362
2398.62	348
2406.23	352
2413.82	348
2421.41	346
2428.99	360
2436.56	350
2444.12	342
2449.79	362

File: ps-ppo-7jan25-1,0000-map3_Y03_X09.txt
182.393	1048
192.79	978
203.174	992
213.542	1060
223.897	1078
234.238	856
244.566	534
254.878	390
265.178	348
275.463	338
285.734	276
295.992	272
306.236	244
316.467	254
326.684	242
336.887	250
347.075	236
357.251	224
367.413	228
377.562	230
387.697	268
397.819	304
407.926	356
418.02	306
428.101	246
438.169	234
448.223	222
458.264	200
468.291	184
478.306	186
488.307	176
498.294	194
508.269	208
518.23	216
528.177	208
538.113	260
548.034	254
557.942	250
567.838	234
577.72	266
587.589	212
597.446	214
607.289	280
617.119	438
626.936	522
636.741	222
646.533	178
656.313	162
666.078	176
675.831	170
685.571	170
695.299	178
705.014	216
714.716	220
724.406	310
734.082	292
743.746	388
753.398	408
763.037	480
772.664	414
782.278	446
791.879	630
801.467	632
811.044	382
820.608	300
830.16	276
839.699	346
849.226	338
858.741	328
868.243	282
877.731	308
887.209	274
896.674	308
906.128	362
915.569	286
924.997	276
934.414	282
943.818	266
953.211	290
962.59	318
971.958	354
981.314	478
990.659	1172
999.99	4216
1009.31	1576
1018.62	484
1027.91	1204
1037.2	1436
1046.47	498
1055.73	412
1064.98	420
1074.22	444
1083.44	428
1092.65	420
1101.86	434
1111.05	354
1120.22	324
1129.39	278
1138.54	296
1147.69	440
1156.82	974
1165.94	514
1175.05	658
1184.14	1208
1193.23	1166
1202.3	1156
1211.36	728
1220.41	502
1229.45	430
1238.48	390
1247.5	374
1256.5	350
1265.49	348
1274.48	348
1283.45	344
1292.41	364
1301.36	420
1310.29	428
1319.22	480
1328.13	552
1337.04	504
1345.93	410
1354.81	376
1363.68	382
1372.54	380
1381.38	364
1390.22	274
1399.05	280
1407.86	278
1416.66	272
1425.46	272
1434.24	326
1443.01	492
1451.77	606
1460.52	398
1469.25	298
1477.98	284
1486.7	286
1495.4	304
1504.1	270
1512.78	274
1521.45	262
1530.11	278
1538.76	274
1547.41	290
1556.03	294
1564.65	326
1573.26	388
1581.86	800
1590.45	604
1599.02	1236
1607.59	1292
1616.14	486
1624.69	364
1633.22	310
1641.75	318
1650.26	358
1658.76	300
1667.26	296
1675.74	290
1684.21	296
1692.67	290
1701.12	288
1709.56	298
1717.99	272
1726.41	274
1734.82	280
1743.22	286
1751.61	292
1759.99	288
1768.36	276
1776.71	284
1785.06	276
1793.4	300
1801.73	298
1810.04	290
1818.35	292
1826.65	290
1834.94	290
1843.21	308
1851.48	294
1859.74	274
1867.98	298
1876.22	290
1884.45	288
1892.67	292
1900.87	308
1909.07	314
1917.26	316
1925.43	298
1933.6	310
1941.76	306
1949.91	324
1958.05	314
1966.17	302
1974.29	312
1982.4	304
1990.5	296
1998.59	324
2006.67	308
2014.74	326
2022.8	318
2030.85	308
2038.89	310
2046.92	314
2054.94	318
2062.95	334
2070.96	312
2078.95	338
2086.93	326
2094.91	316
2102.87	320
2110.83	326
2118.77	314
2126.71	324
2134.63	336
2142.55	346
2150.46	312
2158.35	326
2166.24	334
2174.12	336
2181.99	326
2189.85	348
2197.7	334
2205.55	346
2213.38	346
2221.2	332
2229.02	334
2236.82	332
2244.62	332
2252.4	352
2260.18	344
2267.95	344
2275.71	358
2283.46	338
2291.2	326
2298.93	346
2306.65	354
2314.37	346
2322.07	354
2329.77	364
2337.45	338
2345.13	360
2352.8	350
2360.46	342
2368.11	350
2375.75	382
2383.38	344
2391.01	342
2398.62	360
2406.23	328
2413.82	360
2421.41	350
2428.99	364
2436.56	352
2444.12	372
2449.79	356

File: ps-ppo-7jan25-1,0000-map3_Y03_X10.txt
182.393	1048
192.79	966
203.174	1004
213.542	1068
223.897	1106
234.238	884
244.566	554
254.878	404
265.178	370
275.463	352
285.734	308
295.992	264
306.236	258
316.467	274
326.684	272
336.887	256
347.075	264
357.251	248
367.413	228
377.562	252
387.697	288
397.819	324
407.926	376
418.02	312
428.101	272
438.169	242
448.223	236
458.264	232
468.291	198
478.306	214
488.307	198
498.294	218
508.269	232
518.23	234
528.177	222
538.113	276
548.034	284
557.942	290
567.838	288
577.72	284
587.589	228
597.446	240
607.289	272
617.119	416
626.936	544
636.741	268
646.533	216
656.313	206
666.078	192
675.831	182
685.571	196
695.299	206
705.014	240
714.716	222
724.406	336
734.082	280
743.746	398
753.398	446
763.037	500
772.664	444
782.278	490
791.879	682
801.467	662
811.044	404
820.608	304
830.16	288
839.699	358
849.226	364
858.741	294
868.243	318
877.731	310
887.209	306
896.674	296
906.128	374
915.569	312
924.997	266
934.414	242
943.818	282
953.211	306
962.59	320
971.958	336
981.314	456
990.659	1238
999.99	4162
1009.31	1584
1018.62	470
1027.91	1198
1037.2	1466
1046.47	496
1055.73	416
1064.98	422
1074.22	476
1083.44	452
1092.65	448
1101.86	432
1111.05	378
1120.22	312
1129.39	298
1138.54	304
1147.69	422
1156.82	1004
1165.94	546
1175.05	630
1184.14	1210
1193.23	1164
1202.3	1190
1211.36	750
1220.41	508
1229.45	462
1238.48	376
1247.5	378
1256.5	368
1265.49	370
1274.48	394
1283.45	382
1292.41	376
1301.36	428
1310.29	422
1319.22	472
1328.13	560
1337.04	506
1345.93	414
1354.81	384
1363.68	382
1372.54	370
1381.38	362
1390.22	306
1399.05	298
1407.86	306
1416.66	278
1425.46	284
1434.24	352
1443.01	496
1451.77	632
1460.52	404
1469.25	306
1477.98	286
1486.7	288
1495.4	302
1504.1	276
1512.78	270
1521.45	276
1530.11	302
1538.76	288
1547.41	278
1556.03	314
1564.65	332
1573.26	390
1581.86	820
1590.45	622
1599.02	1242
1607.59	1266
1616.14	462
1624.69	382
1633.22	340
1641.75	342
1650.26	344
1658.76	312
1667.26	310
1675.74	300
1684.21	306
1692.67	320
1701.12	298
1709.56	300
1717.99	288
1726.41	296
1734.82	308
1743.22	282
1751.61	298
1759.99	284
1768.36	292
1776.71	300
1785.06	312
1793.4	304
1801.73	294
1810.04	324
1818.35	310
1826.65	308
1834.94	284
1843.21	312
1851.48	298
1859.74	312
1867.98	294
1876.22	306
1884.45	310
1892.67	308
1900.87	314
1909.07	332
1917.26	340
1925.43	326
1933.6	322
1941.76	330
1949.91	340
1958.05	308
1966.17	330
1974.29	306
1982.4	344
1990.5	332
1998.59	312
2006.67	320
2014.74	314
2022.8	332
2030.85	340
2038.89	350
2046.92	328
2054.94	338
2062.95	314
2070.96	342
2078.95	338
2086.93	340
2094.91	344
2102.87	360
2110.83	340
2118.77	336
2126.71	340
2134.63	358
2142.55	360
2150.46	354
2158.35	364
2166.24	358
2174.12	336
2181.99	346
2189.85	324
2197.7	344
2205.55	354
2213.38	348
2221.2	350
2229.02	338
2236.82	338
2244.62	358
2252.4	352
2260.18	340
2267.95	372
2275.71	362
2283.46	362
2291.2	342
2298.93	344
2306.65	374
2314.37	346
2322.07	340
2329.77	364
2337.45	374
2345.13	358
2352.8	340
2360.46	360
2368.11	362
2375.75	342
2383.38	372
2391.01	378
2398.62	360
2406.23	360
2413.82	358
2421.41	380
2428.99	372
2436.56	360
2444.12	384
2449.79	372

File: ps-ppo-7jan25-1,0000-map3_Y04_X00.txt
182.393	1008
192.79	924
203.174	972
213.542	1076
223.897	1106
234.238	854
244.566	526
254.878	386
265.178	338
275.463	336
285.734	306
295.992	262
306.236	226
316.467	248
326.684	234
336.887	252
347.075	250
357.251	218
367.413	248
377.562	248
387.697	268
397.819	270
407.926	348
418.02	304
428.101	258
438.169	222
448.223	218
458.264	198
468.291	202
478.306	178
488.307	174
498.294	190
508.269	194
518.23	186
528.177	230
538.113	256
548.034	252
557.942	260
567.838	246
577.72	264
587.589	220
597.446	218
607.289	276
617.119	438
626.936	540
636.741	236
646.533	196
656.313	176
666.078	196
675.831	176
685.571	186
695.299	184
705.014	228
714.716	250
724.406	314
734.082	296
743.746	394
753.398	452
763.037	502
772.664	460
782.278	470
791.879	674
801.467	648
811.044	398
820.608	332
830.16	302
839.699	366
849.226	360
858.741	316
868.243	320
877.731	334
887.209	310
896.674	324
906.128	382
915.569	320
924.997	282
934.414	290
943.818	286
953.211	282
962.59	328
971.958	332
981.314	480
990.659	1242
999.99	4172
1009.31	1628
1018.62	500
1027.91	1226
1037.2	1488
1046.47	510
1055.73	418
1064.98	448
1074.22	480
1083.44	460
1092.65	466
1101.86	464
1111.05	382
1120.22	324
1129.39	276
1138.54	346
1147.69	462
1156.82	1056
1165.94	512
1175.05	664
1184.14	1236
1193.23	1162
1202.3	1154
1211.36	756
1220.41	514
1229.45	460
1238.48	402
1247.5	388
1256.5	400
1265.49	362
1274.48	390
1283.45	394
1292.41	422
1301.36	432
1310.29	456
1319.22	490
1328.13	560
1337.04	534
1345.93	442
1354.81	392
1363.68	392
1372.54	400
1381.38	360
1390.22	318
1399.05	300
1407.86	286
1416.66	284
1425.46	298
1434.24	362
1443.01	536
1451.77	630
1460.52	382
1469.25	318
1477.98	308
1486.7	296
1495.4	320
1504.1	318
1512.78	270
1521.45	296
1530.11	290
1538.76	288
1547.41	310
1556.03	304
1564.65	326
1573.26	382
1581.86	824
1590.45	578
1599.02	1256
1607.59	1322
1616.14	502
1624.69	368
1633.22	328
1641.75	342
1650.26	358
1658.76	288
1667.26	304
1675.74	316
1684.21	310
1692.67	314
1701.12	312
1709.56	298
1717.99	302
1726.41	302
1734.82	284
1743.22	310
1751.61	308
1759.99	310
1768.36	310
1776.71	314
1785.06	306
1793.4	288
1801.73	294
1810.04	318
1818.35	304
1826.65	278
1834.94	304
1843.21	310
1851.48	306
1859.74	294
1867.98	302
1876.22	302
1884.45	316
1892.67	290
1900.87	326
1909.07	316
1917.26	314
1925.43	310
1933.6	314
1941.76	336
1949.91	308
1958.05	306
1966.17	304
1974.29	330
1982.4	322
1990.5	322
1998.59	314
2006.67	330
2014.74	326
2022.8	316
2030.85	328
2038.89	312
2046.92	338
2054.94	342
2062.95	312
2070.96	334
2078.95	360
2086.93	336
2094.91	342
2102.87	326
2110.83	340
2118.77	314
2126.71	324
2134.63	326
2142.55	318
2150.46	358
2158.35	334
2166.24	314
2174.12	340
2181.99	352
2189.85	340
2197.7	368
2205.55	338
2213.38	330
2221.2	342
2229.02	364
2236.82	350
2244.62	354
2252.4	350
2260.18	344
2267.95	352
2275.71	354
2283.46	340
2291.2	366
2298.93	338
2306.65	354
2314.37	334
2322.07	356
2329.77	358
2337.45	360
2345.13	358
2352.8	358
2360.46	346
2368.11	362
2375.75	346
2383.38	342
2391.01	358
2398.62	330
2406.23	368
2413.82	356
2421.41	364
2428.99	388
2436.56	370
2444.12	358
2449.79	386

File: ps-ppo-7jan25-1,0000-map3_Y04_X01.txt
182.393	1048
192.79	940
203.174	946
213.542	1048
223.897	1072
234.238	886
244.566	538
254.878	406
265.178	334
275.463	346
285.734	292
295.992	242
306.236	230
316.467	236
326.684	230
336.887	232
347.075	234
357.251	212
367.413	238
377.562	220
387.697	254
397.819	282
407.926	344
418.02	296
428.101	256
438.169	224
448.223	220
458.264	188
468.291	180
478.306	168
488.307	184
498.294	178
508.269	174
518.23	176
528.177	210
538.113	258
548.034	252
557.942	256
567.838	270
577.72	246
587.589	208
597.446	206
607.289	268
617.119	422
626.936	526
636.741	206
646.533	174
656.313	176
666.078	162
675.831	174
685.571	162
695.299	188
705.014	214
714.716	202
724.406	286
734.082	266
743.746	380
753.398	418
763.037	458
772.664	422
782.278	450
791.879	656
801.467	620
811.044	412
820.608	292
830.16	236
839.699	336
849.226	344
858.741	286
868.243	306
877.731	282
887.209	288
896.674	278
906.128	348
915.569	300
924.997	242
934.414	246
943.818	258
953.211	248
962.59	292
971.958	304
981.314	458
990.659	1214
999.99	4144
1009.31	1576
1018.62	444
1027.91	1184
1037.2	1410
1046.47	492
1055.73	402
1064.98	404
1074.22	454
1083.44	428
1092.65	408
1101.86	424
1111.05	348
1120.22	296
1129.39	262
1138.54	318
1147.69	390
1156.82	956
1165.94	524
1175.05	618
1184.14	1244
1193.23	1126
1202.3	1194
1211.36	732
1220.41	462
1229.45	406
1238.48	342
1247.5	350
1256.5	342
1265.49	338
1274.48	322
1283.45	348
1292.41	380
1301.36	394
1310.29	438
1319.22	472
1328.13	498
1337.04	492
1345.93	406
1354.81	354
1363.68	358
1372.54	368
1381.38	350
1390.22	278
1399.05	262
1407.86	260
1416.66	268
1425.46	258
1434.24	316
1443.01	470
1451.77	630
1460.52	352
1469.25	304
1477.98	284
1486.7	252
1495.4	296
1504.1	262
1512.78	278
1521.45	258
1530.11	268
1538.76	252
1547.41	268
1556.03	268
1564.65	304
1573.26	356
1581.86	804
1590.45	610
1599.02	1240
1607.59	1302
1616.14	484
1624.69	372
1633.22	314
1641.75	318
1650.26	354
1658.76	284
1667.26	288
1675.74	292
1684.21	294
1692.67	294
1701.12	274
1709.56	272
1717.99	260
1726.41	276
1734.82	276
1743.22	280
1751.61	276
1759.99	286
1768.36	274
1776.71	276
1785.06	280
1793.4	282
1801.73	272
1810.04	284
1818.35	300
1826.65	282
1834.94	294
1843.21	268
1851.48	296
1859.74	286
1867.98	300
1876.22	296
1884.45	290
1892.67	284
1900.87	306
1909.07	296
1917.26	306
1925.43	306
1933.6	286
1941.76	322
1949.91	294
1958.05	314
1966.17	298
1974.29	302
1982.4	308
1990.5	308
1998.59	308
2006.67	320
2014.74	318
2022.8	310
2030.85	304
2038.89	322
2046.92	296
2054.94	318
2062.95	324
2070.96	338
2078.95	322
2086.93	324
2094.91	320
2102.87	326
2110.83	318
2118.77	312
2126.71	302
2134.63	324
2142.55	302
2150.46	316
2158.35	322
2166.24	320
2174.12	326
2181.99	346
2189.85	306
2197.7	330
2205.55	332
2213.38	336
2221.2	338
2229.02	332
2236.82	350
2244.62	340
2252.4	344
2260.18	320
2267.95	336
2275.71	334
2283.46	336
2291.2	344
2298.93	340
2306.65	348
2314.37	350
2322.07	340
2329.77	334
2337.45	344
2345.13	354
2352.8	334
2360.46	350
2368.11	346
2375.75	336
2383.38	354
2391.01	348
2398.62	344
2406.23	330
2413.82	354
2421.41	342
2428.99	370
2436.56	348
2444.12	370
2449.79	370

File: ps-ppo-7jan25-1,0000-map3_Y04_X03.txt
182.393	1068
192.79	1030
203.174	1022
213.542	1082
223.897	1136
234.238	870
244.566	574
254.878	428
265.178	378
275.463	348
285.734	322
295.992	290
306.236	288
316.467	286
326.684	272
336.887	254
347.075	256
357.251	258
367.413	252
377.562	272
387.697	306
397.819	328
407.926	386
418.02	332
428.101	290
438.169	260
448.223	230
458.264	230
468.291	220
478.306	210
488.307	202
498.294	224
508.269	212
518.23	224
528.177	240
538.113	272
548.034	292
557.942	268
567.838	284
577.72	280
587.589	232
597.446	246
607.289	286
617.119	450
626.936	570
636.741	232
646.533	206
656.313	174
666.078	182
675.831	198
685.571	202
695.299	196
705.014	254
714.716	234
724.406	340
734.082	302
743.746	406
753.398	448
763.037	484
772.664	436
782.278	482
791.879	676
801.467	644
811.044	420
820.608	332
830.16	290
839.699	364
849.226	376
858.741	332
868.243	318
877.731	348
887.209	330
896.674	336
906.128	392
915.569	338
924.997	284
934.414	304
943.818	294
953.211	312
962.59	346
971.958	394
981.314	446
990.659	1202
999.99	4234
1009.31	1628
1018.62	514
1027.91	1256
1037.2	1462
1046.47	522
1055.73	452
1064.98	480
1074.22	496
1083.44	486
1092.65	480
1101.86	450
1111.05	406
1120.22	334
1129.39	310
1138.54	330
1147.69	452
1156.82	1016
1165.94	586
1175.05	662
1184.14	1256
1193.23	1158
1202.3	1194
1211.36	780
1220.41	536
1229.45	472
1238.48	410
1247.5	396
1256.5	384
1265.49	376
1274.48	402
1283.45	388
1292.41	406
1301.36	442
1310.29	452
1319.22	488
1328.13	570
1337.04	554
1345.93	428
1354.81	396
1363.68	414
1372.54	410
1381.38	378
1390.22	320
1399.05	300
1407.86	296
1416.66	278
1425.46	298
1434.24	348
1443.01	536
1451.77	624
1460.52	384
1469.25	318
1477.98	310
1486.7	290
1495.4	316
1504.1	286
1512.78	276
1521.45	276
1530.11	284
1538.76	292
1547.41	276
1556.03	334
1564.65	334
1573.26	376
1581.86	810
1590.45	608
1599.02	1228
1607.59	1344
1616.14	506
1624.69	374
1633.22	376
1641.75	350
1650.26	358
1658.76	304
1667.26	312
1675.74	294
1684.21	318
1692.67	318
1701.12	290
1709.56	306
1717.99	282
1726.41	282
1734.82	296
1743.22	298
1751.61	308
1759.99	298
1768.36	292
1776.71	324
1785.06	320
1793.4	300
1801.73	310
1810.04	338
1818.35	318
1826.65	324
1834.94	304
1843.21	324
1851.48	314
1859.74	314
1867.98	306
1876.22	318
1884.45	320
1892.67	312
1900.87	330
1909.07	322
1917.26	344
1925.43	332
1933.6	334
1941.76	330
1949.91	330
1958.05	334
1966.17	322
1974.29	304
1982.4	352
1990.5	330
1998.59	310
2006.67	328
2014.74	330
2022.8	354
2030.85	338
2038.89	328
2046.92	350
2054.94	338
2062.95	352
2070.96	342
2078.95	340
2086.93	352
2094.91	338
2102.87	336
2110.83	346
2118.77	344
2126.71	354
2134.63	344
2142.55	348
2150.46	356
2158.35	356
2166.24	356
2174.12	354
2181.99	350
2189.85	344
2197.7	346
2205.55	330
2213.38	358
2221.2	360
2229.02	344
2236.82	338
2244.62	336
2252.4	344
2260.18	342
2267.95	350
2275.71	334
2283.46	344
2291.2	356
2298.93	374
2306.65	362
2314.37	360
2322.07	346
2329.77	352
2337.45	358
2345.13	356
2352.8	356
2360.46	360
2368.11	358
2375.75	346
2383.38	360
2391.01	356
2398.62	360
2406.23	356
2413.82	346
2421.41	366
2428.99	356
2436.56	370
2444.12	390
2449.79	366

File: ps-ppo-7jan25-1,0000-map3_Y04_X04.txt
182.393	1042
192.79	960
203.174	992
213.542	1058
223.897	1082
234.238	828
244.566	520
254.878	372
265.178	368
275.463	338
285.734	296
295.992	248
306.236	252
316.467	258
326.684	232
336.887	242
347.075	228
357.251	218
367.413	218
377.562	248
387.697	268
397.819	296
407.926	332
418.02	268
428.101	248
438.169	222
448.223	218
458.264	196
468.291	174
478.306	188
488.307	166
498.294	186
508.269	196
518.23	196
528.177	198
538.113	244
548.034	248
557.942	242
567.838	232
577.72	242
587.589	212
597.446	222
607.289	266
617.119	426
626.936	532
636.741	222
646.533	178
656.313	176
666.078	168
675.831	180
685.571	176
695.299	182
705.014	204
714.716	218
724.406	286
734.082	288
743.746	374
753.398	422
763.037	490
772.664	422
782.278	470
791.879	642
801.467	590
811.044	402
820.608	300
830.16	278
839.699	340
849.226	310
858.741	308
868.243	300
877.731	292
887.209	276
896.674	280
906.128	356
915.569	338
924.997	248
934.414	264
943.818	264
953.211	276
962.59	296
971.958	322
981.314	464
990.659	1180
999.99	4130
1009.31	1586
1018.62	446
1027.91	1176
1037.2	1394
1046.47	472
1055.73	400
1064.98	410
1074.22	448
1083.44	418
1092.65	420
1101.86	430
1111.05	346
1120.22	304
1129.39	282
1138.54	288
1147.69	422
1156.82	998
1165.94	522
1175.05	636
1184.14	1220
1193.23	1122
1202.3	1136
1211.36	742
1220.41	500
1229.45	432
1238.48	360
1247.5	374
1256.5	360
1265.49	340
1274.48	338
1283.45	354
1292.41	372
1301.36	400
1310.29	444
1319.22	486
1328.13	534
1337.04	492
1345.93	404
1354.81	358
1363.68	380
1372.54	370
1381.38	346
1390.22	262
1399.05	258
1407.86	270
1416.66	280
1425.46	268
1434.24	330
1443.01	454
1451.77	594
1460.52	374
1469.25	284
1477.98	286
1486.7	266
1495.4	290
1504.1	242
1512.78	240
1521.45	258
1530.11	262
1538.76	256
1547.41	270
1556.03	292
1564.65	298
1573.26	352
1581.86	786
1590.45	580
1599.02	1190
1607.59	1274
1616.14	454
1624.69	350
1633.22	324
1641.75	324
1650.26	332
1658.76	300
1667.26	280
1675.74	282
1684.21	286
1692.67	262
1701.12	296
1709.56	272
1717.99	274
1726.41	268
1734.82	282
1743.22	252
1751.61	278
1759.99	282
1768.36	276
1776.71	266
1785.06	292
1793.4	260
1801.73	278
1810.04	270
1818.35	284
1826.65	290
1834.94	276
1843.21	292
1851.48	284
1859.74	284
1867.98	284
1876.22	296
1884.45	280
1892.67	288
1900.87	296
1909.07	278
1917.26	294
1925.43	312
1933.6	302
1941.76	288
1949.91	302
1958.05	294
1966.17	314
1974.29	306
1982.4	312
1990.5	318
1998.59	310
2006.67	304
2014.74	308
2022.8	320
2030.85	288
2038.89	314
2046.92	298
2054.94	330
2062.95	306
2070.96	322
2078.95	322
2086.93	312
2094.91	318
2102.87	294
2110.83	312
2118.77	326
2126.71	308
2134.63	322
2142.55	330
2150.46	344
2158.35	332
2166.24	330
2174.12	324
2181.99	328
2189.85	338
2197.7	334
2205.55	340
2213.38	328
2221.2	318
2229.02	320
2236.82	326
2244.62	336
2252.4	324
2260.18	338
2267.95	334
2275.71	332
2283.46	354
2291.2	340
2298.93	350
2306.65	336
2314.37	348
2322.07	344
2329.77	354
2337.45	340
2345.13	348
2352.8	360
2360.46	364
2368.11	352
2375.75	364
2383.38	356
2391.01	346
2398.62	324
2406.23	360
2413.82	342
2421.41	358
2428.99	364
2436.56	366
2444.12	362
2449.79	360

File: ps-ppo-7jan25-1,0000-map3_Y04_X06.txt
182.393	1002
192.79	902
203.174	928
213.542	1008
223.897	1004
234.238	814
244.566	518
254.878	342
265.178	304
275.463	304
285.734	260
295.992	216
306.236	210
316.467	208
326.684	226
336.887	224
347.075	212
357.251	200
367.413	196
377.562	206
387.697	254
397.819	266
407.926	330
418.02	276
428.101	228
438.169	208
448.223	208
458.264	172
468.291	156
478.306	160
488.307	168
498.294	168
508.269	190
518.23	176
528.177	202
538.113	232
548.034	236
557.942	230
567.838	228
577.72	244
587.589	210
597.446	214
607.289	254
617.119	414
626.936	538
636.741	232
646.533	180
656.313	168
666.078	162
675.831	156
685.571	170
695.299	172
705.014	198
714.716	216
724.406	304
734.082	276
743.746	388
753.398	404
763.037	470
772.664	422
782.278	456
791.879	636
801.467	638
811.044	384
820.608	300
830.16	264
839.699	336
849.226	330
858.741	296
868.243	298
877.731	300
887.209	282
896.674	274
906.128	348
915.569	300
924.997	260
934.414	250
943.818	244
953.211	276
962.59	292
971.958	314
981.314	426
990.659	1162
999.99	4172
1009.31	1570
1018.62	452
1027.91	1170
1037.2	1430
1046.47	462
1055.73	390
1064.98	392
1074.22	418
1083.44	414
1092.65	414
1101.86	410
1111.05	328
1120.22	278
1129.39	258
1138.54	284
1147.69	412
1156.82	964
1165.94	508
1175.05	610
1184.14	1204
1193.23	1116
1202.3	1150
1211.36	730
1220.41	454
1229.45	396
1238.48	350
1247.5	358
1256.5	342
1265.49	346
1274.48	324
1283.45	334
1292.41	346
1301.36	402
1310.29	402
1319.22	450
1328.13	520
1337.04	472
1345.93	394
1354.81	358
1363.68	358
1372.54	376
1381.38	318
1390.22	264
1399.05	262
1407.86	272
1416.66	246
1425.46	264
1434.24	300
1443.01	476
1451.77	598
1460.52	360
1469.25	262
1477.98	246
1486.7	252
1495.4	296
1504.1	242
1512.78	246
1521.45	244
1530.11	246
1538.76	246
1547.41	276
1556.03	284
1564.65	296
1573.26	338
1581.86	790
1590.45	588
1599.02	1214
1607.59	1292
1616.14	430
1624.69	352
1633.22	286
1641.75	312
1650.26	324
1658.76	276
1667.26	280
1675.74	274
1684.21	266
1692.67	274
1701.12	282
1709.56	242
1717.99	282
1726.41	258
1734.82	274
1743.22	268
1751.61	260
1759.99	262
1768.36	262
1776.71	278
1785.06	270
1793.4	284
1801.73	276
1810.04	268
1818.35	280
1826.65	278
1834.94	280
1843.21	280
1851.48	268
1859.74	288
1867.98	294
1876.22	284
1884.45	274
1892.67	294
1900.87	298
1909.07	294
1917.26	280
1925.43	304
1933.6	314
1941.76	294
1949.91	282
1958.05	312
1966.17	302
1974.29	300
1982.4	300
1990.5	274
1998.59	288
2006.67	302
2014.74	302
2022.8	304
2030.85	306
2038.89	310
2046.92	316
2054.94	306
2062.95	318
2070.96	282
2078.95	304
2086.93	314
2094.91	306
2102.87	312
2110.83	302
2118.77	320
2126.71	318
2134.63	306
2142.55	322
2150.46	324
2158.35	328
2166.24	314
2174.12	332
2181.99	326
2189.85	328
2197.7	330
2205.55	322
2213.38	316
2221.2	308
2229.02	328
2236.82	342
2244.62	328
2252.4	318
2260.18	320
2267.95	336
2275.71	338
2283.46	350
2291.2	344
2298.93	314
2306.65	330
2314.37	336
2322.07	342
2329.77	332
2337.45	346
2345.13	332
2352.8	342
2360.46	364
2368.11	334
2375.75	330
2383.38	326
2391.01	342
2398.62	348
2406.23	342
2413.82	338
2421.41	330
2428.99	338
2436.56	346
2444.12	352
2449.79	360