Folder: NRC_SU25_Spectral_Classification/Jesse_Dataset_v2/Pure Raman/Polystyrene/633nm

Note: README.md
# Spectral Classification Project

This repository contains implementations of various machine learning and deep learning methods for the **one-shot classification of chemical spectra**. The goal is to identify the **chemical identity** of an unknown **Raman spectrum** by finding the best match from a reference library of known spectra.

The project explores and compares **four distinct approaches**, inspired by the methods described in *[Halas et al., ACS Nano, 2023](https://doi.org/10.1021/acsnano.3c05510)*.


---

## Core Concept: Spectral Identification

The fundamental problem is to take a **high-dimensional spectrum** from an unknown sample and accurately identify it by comparing it against a **library of known spectra**. Each method in this repository tackles this problem through a different **feature extraction** and **similarity matching** strategy.

---

## Included Implementations

This repository includes four primary methods for spectral classification:

- `CaPSim` (Characteristic Peak Similarity)
- `CaPSim` with `k-NN` Classifier
- `PCA` (Principal Component Analysis) Classifier
- `Siamese Network` for One-Shot Learning

All methods assume the data is provided in **CSV format**, with one file for the **reference library** and one for the **query spectra**. The **last column** in each file should be named **`Label`** and contain the chemical identifier.

---

### 1. CaPSim (Characteristic Peak Similarity)
**Script:** `CaPSim.py`  
**Approach:** Local peak-based dot-product similarity

**Concept:**  
This method directly implements the approach described in the Halas et al. paper. It assumes that key information in a spectrum is concentrated in a few discrete **characteristic peaks (CPs)**.

**Workflow:**
- **Preprocessing:** Baseline correction and L2 normalization
- **Feature Definition:** Identify most frequent or intense peaks per class → class-specific CPs
- **Feature Extraction:** Extract maximum intensity around CPs for each query
- **Similarity Matching:** Compute mean dot-product (CaPSim score); assign query to class with highest score

---

### 2. CaPSim with k-NN Classifier
**Script:** `CaPSim_kNN.py`  
**Approach:** Local peak-based features with supervised classification

**Concept:**  
An extension of CaPSim that uses the same CP-based features but replaces dot-product similarity with a learned `k-Nearest Neighbors` classifier.

**Workflow:**
- **Preprocessing:** Same as baseline CaPSim
- **Feature Definition:** Global CP set = union of all class CPs
- **Feature Extraction:** Fixed-length feature vectors for all reference spectra
- **Training:** Train a `k-NN` model using cosine distance
- **Classification:** Predict query identity using trained model

---

### 3. PCA (Principal Component Analysis) Classifier
**Script:** `PCA_Classification.py`  
**Approach:** Global shape-based classification in PCA space

**Concept:**  
A benchmark method that uses global spectral shape via PCA. It reduces the dimensionality of the spe

File: ps-ppo-7jan25-1,0000-map3_Y00_X01.txt
182.393	1040
192.79	974
203.174	968
213.542	1090
223.897	1090
234.238	868
244.566	536
254.878	412
265.178	374
275.463	348
285.734	300
295.992	278
306.236	250
316.467	280
326.684	270
336.887	266
347.075	238
357.251	216
367.413	250
377.562	244
387.697	290
397.819	314
407.926	372
418.02	322
428.101	258
438.169	258
448.223	238
458.264	212
468.291	198
478.306	212
488.307	196
498.294	210
508.269	214
518.23	206
528.177	244
538.113	278
548.034	274
557.942	264
567.838	292
577.72	286
587.589	240
597.446	242
607.289	292
617.119	440
626.936	582
636.741	254
646.533	218
656.313	214
666.078	196
675.831	200
685.571	200
695.299	208
705.014	242
714.716	228
724.406	320
734.082	296
743.746	404
753.398	432
763.037	508
772.664	422
782.278	494
791.879	678
801.467	666
811.044	430
820.608	320
830.16	304
839.699	368
849.226	382
858.741	306
868.243	322
877.731	310
887.209	312
896.674	292
906.128	396
915.569	340
924.997	292
934.414	258
943.818	298
953.211	290
962.59	338
971.958	356
981.314	474
990.659	1188
999.99	4176
1009.31	1592
1018.62	468
1027.91	1212
1037.2	1474
1046.47	520
1055.73	416
1064.98	458
1074.22	490
1083.44	436
1092.65	446
1101.86	470
1111.05	386
1120.22	352
1129.39	306
1138.54	322
1147.69	424
1156.82	1004
1165.94	558
1175.05	642
1184.14	1220
1193.23	1176
1202.3	1172
1211.36	762
1220.41	482
1229.45	464
1238.48	392
1247.5	386
1256.5	402
1265.49	360
1274.48	376
1283.45	366
1292.41	408
1301.36	420
1310.29	438
1319.22	492
1328.13	552
1337.04	516
1345.93	436
1354.81	380
1363.68	390
1372.54	404
1381.38	376
1390.22	292
1399.05	298
1407.86	300
1416.66	302
1425.46	292
1434.24	364
1443.01	522
1451.77	632
1460.52	402
1469.25	332
1477.98	300
1486.7	300
1495.4	328
1504.1	288
1512.78	304
1521.45	284
1530.11	290
1538.76	320
1547.41	322
1556.03	306
1564.65	344
1573.26	398
1581.86	836
1590.45	632
1599.02	1196
1607.59	1324
1616.14	492
1624.69	404
1633.22	366
1641.75	346
1650.26	350
1658.76	316
1667.26	292
1675.74	316
1684.21	318
1692.67	322
1701.12	318
1709.56	294
1717.99	334
1726.41	348
1734.82	304
1743.22	320
1751.61	294
1759.99	308
1768.36	308
1776.71	314
1785.06	286
1793.4	328
1801.73	306
1810.04	320
1818.35	330
1826.65	332
1834.94	304
1843.21	300
1851.48	310
1859.74	306
1867.98	322
1876.22	314
1884.45	312
1892.67	294
1900.87	320
1909.07	334
1917.26	340
1925.43	328
1933.6	312
1941.76	346
1949.91	320
1958.05	306
1966.17	342
1974.29	356
1982.4	320
1990.5	318
1998.59	332
2006.67	342
2014.74	334
2022.8	356
2030.85	358
2038.89	346
2046.92	354
2054.94	338
2062.95	346
2070.96	344
2078.95	344
2086.93	340
2094.91	326
2102.87	340
2110.83	338
2118.77	362
2126.71	348
2134.63	336
2142.55	346
2150.46	336
2158.35	350
2166.24	340
2174.12	332
2181.99	336
2189.85	352
2197.7	354
2205.55	358
2213.38	362
2221.2	332
2229.02	348
2236.82	366
2244.62	354
2252.4	342
2260.18	346
2267.95	360
2275.71	346
2283.46	362
2291.2	346
2298.93	346
2306.65	360
2314.37	364
2322.07	354
2329.77	352
2337.45	358
2345.13	390
2352.8	366
2360.46	368
2368.11	382
2375.75	364
2383.38	360
2391.01	356
2398.62	370
2406.23	352
2413.82	370
2421.41	380
2428.99	366
2436.56	368
2444.12	358
2449.79	392

File: ps-ppo-7jan25-1,0000-map3_Y00_X02.txt
182.393	1042
192.79	990
203.174	940
213.542	1108
223.897	1128
234.238	882
244.566	568
254.878	438
265.178	376
275.463	376
285.734	340
295.992	302
306.236	268
316.467	296
326.684	298
336.887	304
347.075	284
357.251	270
367.413	266
377.562	286
387.697	300
397.819	326
407.926	408
418.02	326
428.101	288
438.169	272
448.223	250
458.264	240
468.291	240
478.306	236
488.307	224
498.294	246
508.269	232
518.23	256
528.177	238
538.113	292
548.034	310
557.942	304
567.838	296
577.72	286
587.589	272
597.446	252
607.289	312
617.119	480
626.936	598
636.741	266
646.533	234
656.313	228
666.078	220
675.831	218
685.571	236
695.299	228
705.014	264
714.716	236
724.406	324
734.082	326
743.746	414
753.398	462
763.037	514
772.664	470
782.278	472
791.879	682
801.467	684
811.044	426
820.608	334
830.16	326
839.699	374
849.226	372
858.741	322
868.243	338
877.731	314
887.209	306
896.674	344
906.128	374
915.569	340
924.997	308
934.414	306
943.818	286
953.211	316
962.59	342
971.958	372
981.314	466
990.659	1188
999.99	4190
1009.31	1652
1018.62	508
1027.91	1206
1037.2	1474
1046.47	510
1055.73	424
1064.98	458
1074.22	468
1083.44	460
1092.65	472
1101.86	468
1111.05	368
1120.22	352
1129.39	302
1138.54	336
1147.69	432
1156.82	988
1165.94	568
1175.05	648
1184.14	1246
1193.23	1168
1202.3	1214
1211.36	770
1220.41	508
1229.45	456
1238.48	424
1247.5	402
1256.5	398
1265.49	394
1274.48	376
1283.45	400
1292.41	426
1301.36	424
1310.29	460
1319.22	526
1328.13	596
1337.04	556
1345.93	438
1354.81	402
1363.68	414
1372.54	408
1381.38	394
1390.22	302
1399.05	294
1407.86	326
1416.66	312
1425.46	310
1434.24	338
1443.01	524
1451.77	628
1460.52	432
1469.25	354
1477.98	324
1486.7	312
1495.4	334
1504.1	304
1512.78	310
1521.45	312
1530.11	320
1538.76	310
1547.41	316
1556.03	328
1564.65	354
1573.26	406
1581.86	862
1590.45	638
1599.02	1236
1607.59	1346
1616.14	496
1624.69	414
1633.22	364
1641.75	358
1650.26	388
1658.76	328
1667.26	314
1675.74	330
1684.21	328
1692.67	324
1701.12	320
1709.56	302
1717.99	320
1726.41	328
1734.82	328
1743.22	296
1751.61	324
1759.99	324
1768.36	308
1776.71	314
1785.06	330
1793.4	324
1801.73	324
1810.04	334
1818.35	334
1826.65	324
1834.94	352
1843.21	340
1851.48	346
1859.74	334
1867.98	334
1876.22	350
1884.45	326
1892.67	330
1900.87	338
1909.07	336
1917.26	364
1925.43	354
1933.6	366
1941.76	348
1949.91	350
1958.05	322
1966.17	358
1974.29	352
1982.4	346
1990.5	360
1998.59	352
2006.67	354
2014.74	354
2022.8	358
2030.85	354
2038.89	372
2046.92	356
2054.94	348
2062.95	372
2070.96	378
2078.95	362
2086.93	376
2094.91	364
2102.87	368
2110.83	360
2118.77	386
2126.71	372
2134.63	344
2142.55	360
2150.46	390
2158.35	384
2166.24	358
2174.12	374
2181.99	386
2189.85	370
2197.7	378
2205.55	354
2213.38	390
2221.2	372
2229.02	360
2236.82	368
2244.62	362
2252.4	364
2260.18	342
2267.95	366
2275.71	356
2283.46	374
2291.2	364
2298.93	366
2306.65	374
2314.37	374
2322.07	368
2329.77	378
2337.45	362
2345.13	374
2352.8	362
2360.46	380
2368.11	368
2375.75	382
2383.38	370
2391.01	358
2398.62	388
2406.23	378
2413.82	372
2421.41	364
2428.99	368
2436.56	390
2444.12	384
2449.79	400

File: ps-ppo-7jan25-1,0000-map3_Y00_X04.txt
182.393	1088
192.79	972
203.174	942
213.542	1044
223.897	1088
234.238	872
244.566	528
254.878	404
265.178	354
275.463	358
285.734	296
295.992	266
306.236	250
316.467	258
326.684	252
336.887	256
347.075	250
357.251	228
367.413	250
377.562	276
387.697	282
397.819	290
407.926	372
418.02	300
428.101	268
438.169	250
448.223	230
458.264	204
468.291	218
478.306	212
488.307	196
498.294	208
508.269	218
518.23	204
528.177	242
538.113	280
548.034	266
557.942	282
567.838	264
577.72	268
587.589	222
597.446	232
607.289	274
617.119	448
626.936	570
636.741	252
646.533	206
656.313	190
666.078	184
675.831	174
685.571	188
695.299	208
705.014	238
714.716	234
724.406	322
734.082	290
743.746	396
753.398	422
763.037	496
772.664	410
782.278	450
791.879	666
801.467	664
811.044	424
820.608	308
830.16	292
839.699	348
849.226	374
858.741	298
868.243	300
877.731	304
887.209	296
896.674	286
906.128	352
915.569	338
924.997	272
934.414	278
943.818	284
953.211	272
962.59	324
971.958	334
981.314	502
990.659	1190
999.99	4180
1009.31	1594
1018.62	456
1027.91	1172
1037.2	1448
1046.47	488
1055.73	426
1064.98	438
1074.22	472
1083.44	452
1092.65	456
1101.86	434
1111.05	372
1120.22	336
1129.39	304
1138.54	336
1147.69	460
1156.82	1000
1165.94	520
1175.05	666
1184.14	1178
1193.23	1192
1202.3	1176
1211.36	728
1220.41	492
1229.45	456
1238.48	416
1247.5	386
1256.5	372
1265.49	378
1274.48	372
1283.45	382
1292.41	394
1301.36	432
1310.29	460
1319.22	516
1328.13	542
1337.04	500
1345.93	430
1354.81	408
1363.68	394
1372.54	414
1381.38	362
1390.22	308
1399.05	310
1407.86	314
1416.66	312
1425.46	282
1434.24	360
1443.01	534
1451.77	638
1460.52	430
1469.25	312
1477.98	306
1486.7	322
1495.4	326
1504.1	300
1512.78	284
1521.45	318
1530.11	296
1538.76	310
1547.41	306
1556.03	330
1564.65	320
1573.26	406
1581.86	826
1590.45	630
1599.02	1250
1607.59	1348
1616.14	524
1624.69	396
1633.22	350
1641.75	370
1650.26	386
1658.76	318
1667.26	316
1675.74	346
1684.21	322
1692.67	328
1701.12	340
1709.56	324
1717.99	304
1726.41	304
1734.82	322
1743.22	318
1751.61	330
1759.99	324
1768.36	326
1776.71	320
1785.06	332
1793.4	318
1801.73	310
1810.04	328
1818.35	326
1826.65	316
1834.94	322
1843.21	318
1851.48	304
1859.74	316
1867.98	316
1876.22	338
1884.45	354
1892.67	334
1900.87	348
1909.07	318
1917.26	312
1925.43	344
1933.6	354
1941.76	334
1949.91	336
1958.05	346
1966.17	350
1974.29	346
1982.4	344
1990.5	344
1998.59	332
2006.67	358
2014.74	328
2022.8	348
2030.85	346
2038.89	350
2046.92	348
2054.94	360
2062.95	356
2070.96	350
2078.95	366
2086.93	336
2094.91	342
2102.87	340
2110.83	370
2118.77	336
2126.71	350
2134.63	364
2142.55	356
2150.46	354
2158.35	340
2166.24	342
2174.12	354
2181.99	358
2189.85	344
2197.7	360
2205.55	360
2213.38	376
2221.2	360
2229.02	356
2236.82	358
2244.62	358
2252.4	368
2260.18	370
2267.95	364
2275.71	352
2283.46	352
2291.2	344
2298.93	370
2306.65	364
2314.37	390
2322.07	376
2329.77	390
2337.45	366
2345.13	374
2352.8	386
2360.46	364
2368.11	372
2375.75	342
2383.38	352
2391.01	354
2398.62	342
2406.23	370
2413.82	368
2421.41	362
2428.99	362
2436.56	362
2444.12	376
2449.79	388

File: ps-ppo-7jan25-1,0000-map3_Y00_X07.txt
182.393	1134
192.79	1026
203.174	1066
213.542	1124
223.897	1186
234.238	912
244.566	616
254.878	490
265.178	420
275.463	390
285.734	358
295.992	354
306.236	312
316.467	328
326.684	328
336.887	306
347.075	318
357.251	306
367.413	292
377.562	312
387.697	328
397.819	354
407.926	422
418.02	362
428.101	310
438.169	302
448.223	280
458.264	256
468.291	240
478.306	236
488.307	238
498.294	256
508.269	246
518.23	252
528.177	270
538.113	294
548.034	300
557.942	316
567.838	292
577.72	302
587.589	260
597.446	288
607.289	316
617.119	498
626.936	580
636.741	266
646.533	252
656.313	216
666.078	232
675.831	204
685.571	242
695.299	236
705.014	268
714.716	256
724.406	340
734.082	344
743.746	408
753.398	476
763.037	528
772.664	458
782.278	516
791.879	678
801.467	700
811.044	432
820.608	338
830.16	308
839.699	384
849.226	374
858.741	354
868.243	364
877.731	346
887.209	338
896.674	344
906.128	414
915.569	394
924.997	306
934.414	318
943.818	330
953.211	326
962.59	364
971.958	404
981.314	522
990.659	1240
999.99	4264
1009.31	1628
1018.62	528
1027.91	1256
1037.2	1490
1046.47	554
1055.73	492
1064.98	510
1074.22	538
1083.44	494
1092.65	506
1101.86	526
1111.05	418
1120.22	392
1129.39	362
1138.54	358
1147.69	502
1156.82	1054
1165.94	620
1175.05	700
1184.14	1202
1193.23	1228
1202.3	1254
1211.36	812
1220.41	570
1229.45	492
1238.48	466
1247.5	442
1256.5	426
1265.49	442
1274.48	418
1283.45	440
1292.41	460
1301.36	478
1310.29	528
1319.22	556
1328.13	606
1337.04	580
1345.93	478
1354.81	470
1363.68	480
1372.54	450
1381.38	410
1390.22	374
1399.05	342
1407.86	340
1416.66	350
1425.46	328
1434.24	410
1443.01	546
1451.77	674
1460.52	480
1469.25	352
1477.98	348
1486.7	336
1495.4	368
1504.1	336
1512.78	310
1521.45	350
1530.11	336
1538.76	334
1547.41	358
1556.03	364
1564.65	370
1573.26	422
1581.86	832
1590.45	662
1599.02	1258
1607.59	1356
1616.14	544
1624.69	408
1633.22	380
1641.75	382
1650.26	384
1658.76	364
1667.26	324
1675.74	344
1684.21	346
1692.67	330
1701.12	344
1709.56	350
1717.99	342
1726.41	334
1734.82	324
1743.22	340
1751.61	306
1759.99	334
1768.36	318
1776.71	332
1785.06	332
1793.4	328
1801.73	340
1810.04	350
1818.35	324
1826.65	318
1834.94	350
1843.21	342
1851.48	332
1859.74	326
1867.98	334
1876.22	320
1884.45	336
1892.67	332
1900.87	346
1909.07	324
1917.26	334
1925.43	342
1933.6	362
1941.76	364
1949.91	336
1958.05	342
1966.17	336
1974.29	354
1982.4	314
1990.5	334
1998.59	340
2006.67	336
2014.74	332
2022.8	346
2030.85	348
2038.89	346
2046.92	342
2054.94	366
2062.95	348
2070.96	354
2078.95	346
2086.93	354
2094.91	356
2102.87	360
2110.83	376
2118.77	354
2126.71	334
2134.63	360
2142.55	326
2150.46	364
2158.35	366
2166.24	384
2174.12	362
2181.99	368
2189.85	368
2197.7	356
2205.55	366
2213.38	358
2221.2	366
2229.02	392
2236.82	368
2244.62	364
2252.4	370
2260.18	358
2267.95	376
2275.71	362
2283.46	372
2291.2	388
2298.93	380
2306.65	370
2314.37	382
2322.07	398
2329.77	390
2337.45	382
2345.13	374
2352.8	388
2360.46	392
2368.11	372
2375.75	392
2383.38	380
2391.01	384
2398.62	388
2406.23	378
2413.82	384
2421.41	374
2428.99	384
2436.56	380
2444.12	416
2449.79	388

File: ps-ppo-7jan25-1,0000-map3_Y00_X09.txt
182.393	1038
192.79	936
203.174	966
213.542	1058
223.897	1076
234.238	874
244.566	520
254.878	394
265.178	330
275.463	332
285.734	284
295.992	264
306.236	234
316.467	254
326.684	250
336.887	246
347.075	236
357.251	244
367.413	230
377.562	236
387.697	252
397.819	292
407.926	362
418.02	310
428.101	262
438.169	228
448.223	222
458.264	200
468.291	182
478.306	170
488.307	180
498.294	202
508.269	204
518.23	204
528.177	214
538.113	248
548.034	274
557.942	254
567.838	256
577.72	260
587.589	224
597.446	210
607.289	282
617.119	426
626.936	498
636.741	214
646.533	192
656.313	180
666.078	158
675.831	172
685.571	178
695.299	188
705.014	240
714.716	214
724.406	302
734.082	288
743.746	386
753.398	418
763.037	474
772.664	436
782.278	464
791.879	610
801.467	638
811.044	410
820.608	298
830.16	288
839.699	342
849.226	328
858.741	302
868.243	300
877.731	296
887.209	298
896.674	288
906.128	368
915.569	310
924.997	286
934.414	268
943.818	280
953.211	280
962.59	318
971.958	322
981.314	468
990.659	1134
999.99	4226
1009.31	1542
1018.62	482
1027.91	1192
1037.2	1438
1046.47	474
1055.73	386
1064.98	418
1074.22	472
1083.44	410
1092.65	424
1101.86	444
1111.05	372
1120.22	314
1129.39	294
1138.54	314
1147.69	438
1156.82	996
1165.94	536
1175.05	628
1184.14	1214
1193.23	1128
1202.3	1118
1211.36	738
1220.41	494
1229.45	466
1238.48	398
1247.5	380
1256.5	372
1265.49	388
1274.48	356
1283.45	366
1292.41	408
1301.36	422
1310.29	456
1319.22	502
1328.13	514
1337.04	532
1345.93	402
1354.81	398
1363.68	404
1372.54	376
1381.38	366
1390.22	292
1399.05	288
1407.86	298
1416.66	286
1425.46	306
1434.24	348
1443.01	468
1451.77	602
1460.52	402
1469.25	308
1477.98	280
1486.7	292
1495.4	322
1504.1	282
1512.78	274
1521.45	282
1530.11	308
1538.76	294
1547.41	300
1556.03	316
1564.65	340
1573.26	388
1581.86	786
1590.45	624
1599.02	1240
1607.59	1342
1616.14	510
1624.69	378
1633.22	352
1641.75	322
1650.26	370
1658.76	320
1667.26	310
1675.74	316
1684.21	322
1692.67	310
1701.12	306
1709.56	316
1717.99	302
1726.41	308
1734.82	306
1743.22	306
1751.61	314
1759.99	288
1768.36	312
1776.71	318
1785.06	322
1793.4	318
1801.73	324
1810.04	298
1818.35	318
1826.65	330
1834.94	320
1843.21	310
1851.48	328
1859.74	340
1867.98	312
1876.22	314
1884.45	312
1892.67	320
1900.87	330
1909.07	338
1917.26	342
1925.43	352
1933.6	328
1941.76	348
1949.91	348
1958.05	334
1966.17	350
1974.29	342
1982.4	356
1990.5	334
1998.59	328
2006.67	352
2014.74	328
2022.8	346
2030.85	366
2038.89	330
2046.92	328
2054.94	336
2062.95	364
2070.96	340
2078.95	332
2086.93	348
2094.91	348
2102.87	350
2110.83	360
2118.77	364
2126.71	362
2134.63	346
2142.55	354
2150.46	368
2158.35	358
2166.24	344
2174.12	352
2181.99	344
2189.85	352
2197.7	332
2205.55	346
2213.38	348
2221.2	352
2229.02	342
2236.82	360
2244.62	356
2252.4	376
2260.18	356
2267.95	364
2275.71	354
2283.46	360
2291.2	364
2298.93	366
2306.65	370
2314.37	356
2322.07	360
2329.77	352
2337.45	348
2345.13	344
2352.8	352
2360.46	362
2368.11	368
2375.75	370
2383.38	386
2391.01	370
2398.62	362
2406.23	378
2413.82	392
2421.41	402
2428.99	386
2436.56	384
2444.12	358
2449.79	410

File: ps-ppo-7jan25-1,0000-map3_Y01_X02.txt
182.393	1154
192.79	1056
203.174	1042
213.542	1136
223.897	1192
234.238	956
244.566	636
254.878	480
265.178	454
275.463	430
285.734	380
295.992	346
306.236	352
316.467	342
326.684	346
336.887	310
347.075	324
357.251	312
367.413	320
377.562	326
387.697	356
397.819	366
407.926	432
418.02	380
428.101	332
438.169	304
448.223	296
458.264	262
468.291	256
478.306	262
488.307	244
498.294	260
508.269	286
518.23	236
528.177	282
538.113	314
548.034	330
557.942	322
567.838	292
577.72	298
587.589	252
597.446	274
607.289	306
617.119	474
626.936	598
636.741	264
646.533	228
656.313	222
666.078	214
675.831	204
685.571	218
695.299	226
705.014	250
714.716	252
724.406	352
734.082	304
743.746	434
753.398	452
763.037	518
772.664	462
782.278	506
791.879	696
801.467	652
811.044	442
820.608	322
830.16	296
839.699	368
849.226	382
858.741	330
868.243	350
877.731	326
887.209	324
896.674	344
906.128	418
915.569	336
924.997	292
934.414	318
943.818	308
953.211	332
962.59	336
971.958	368
981.314	520
990.659	1228
999.99	4228
1009.31	1642
1018.62	532
1027.91	1230
1037.2	1492
1046.47	540
1055.73	482
1064.98	472
1074.22	486
1083.44	508
1092.65	506
1101.86	500
1111.05	434
1120.22	382
1129.39	334
1138.54	366
1147.69	466
1156.82	1030
1165.94	580
1175.05	688
1184.14	1284
1193.23	1224
1202.3	1240
1211.36	794
1220.41	538
1229.45	516
1238.48	454
1247.5	436
1256.5	422
1265.49	410
1274.48	406
1283.45	404
1292.41	442
1301.36	472
1310.29	500
1319.22	530
1328.13	592
1337.04	548
1345.93	454
1354.81	444
1363.68	430
1372.54	450
1381.38	398
1390.22	330
1399.05	336
1407.86	312
1416.66	304
1425.46	324
1434.24	384
1443.01	516
1451.77	656
1460.52	420
1469.25	320
1477.98	326
1486.7	316
1495.4	352
1504.1	302
1512.78	294
1521.45	304
1530.11	308
1538.76	310
1547.41	298
1556.03	328
1564.65	360
1573.26	414
1581.86	850
1590.45	620
1599.02	1268
1607.59	1330
1616.14	492
1624.69	414
1633.22	344
1641.75	360
1650.26	388
1658.76	328
1667.26	328
1675.74	324
1684.21	318
1692.67	316
1701.12	312
1709.56	288
1717.99	312
1726.41	316
1734.82	304
1743.22	304
1751.61	300
1759.99	324
1768.36	292
1776.71	324
1785.06	312
1793.4	308
1801.73	292
1810.04	330
1818.35	316
1826.65	318
1834.94	316
1843.21	328
1851.48	286
1859.74	296
1867.98	304
1876.22	314
1884.45	306
1892.67	316
1900.87	332
1909.07	312
1917.26	298
1925.43	334
1933.6	318
1941.76	330
1949.91	320
1958.05	316
1966.17	314
1974.29	306
1982.4	300
1990.5	314
1998.59	334
2006.67	322
2014.74	328
2022.8	320
2030.85	312
2038.89	346
2046.92	332
2054.94	300
2062.95	356
2070.96	344
2078.95	334
2086.93	332
2094.91	338
2102.87	336
2110.83	338
2118.77	342
2126.71	334
2134.63	326
2142.55	342
2150.46	318
2158.35	336
2166.24	346
2174.12	332
2181.99	320
2189.85	344
2197.7	338
2205.55	346
2213.38	324
2221.2	348
2229.02	358
2236.82	340
2244.62	324
2252.4	348
2260.18	344
2267.95	322
2275.71	350
2283.46	344
2291.2	346
2298.93	330
2306.65	354
2314.37	332
2322.07	340
2329.77	352
2337.45	340
2345.13	358
2352.8	368
2360.46	360
2368.11	350
2375.75	366
2383.38	352
2391.01	350
2398.62	366
2406.23	340
2413.82	350
2421.41	366
2428.99	364
2436.56	366
2444.12	358
2449.79	376

File: ps-ppo-7jan25-1,0000-map3_Y01_X06.txt
182.393	1102
192.79	920
203.174	994
213.542	1072
223.897	1118
234.238	890
244.566	560
254.878	400
265.178	362
275.463	336
285.734	308
295.992	274
306.236	252
316.467	268
326.684	252
336.887	258
347.075	264
357.251	226
367.413	234
377.562	246
387.697	272
397.819	302
407.926	362
418.02	320
428.101	272
438.169	254
448.223	238
458.264	218
468.291	218
478.306	208
488.307	218
498.294	194
508.269	232
518.23	228
528.177	246
538.113	274
548.034	276
557.942	276
567.838	282
577.72	286
587.589	242
597.446	246
607.289	316
617.119	434
626.936	572
636.741	252
646.533	226
656.313	208
666.078	200
675.831	208
685.571	198
695.299	226
705.014	256
714.716	256
724.406	296
734.082	322
743.746	404
753.398	428
763.037	506
772.664	472
782.278	478
791.879	668
801.467	682
811.044	414
820.608	316
830.16	300
839.699	370
849.226	364
858.741	326
868.243	338
877.731	332
887.209	306
896.674	316
906.128	386
915.569	322
924.997	282
934.414	280
943.818	280
953.211	294
962.59	310
971.958	364
981.314	474
990.659	1156
999.99	4198
1009.31	1604
1018.62	486
1027.91	1206
1037.2	1450
1046.47	516
1055.73	414
1064.98	460
1074.22	482
1083.44	470
1092.65	460
1101.86	450
1111.05	396
1120.22	338
1129.39	310
1138.54	332
1147.69	450
1156.82	1034
1165.94	556
1175.05	650
1184.14	1238
1193.23	1198
1202.3	1180
1211.36	746
1220.41	504
1229.45	456
1238.48	400
1247.5	364
1256.5	378
1265.49	378
1274.48	378
1283.45	384
1292.41	394
1301.36	444
1310.29	468
1319.22	510
1328.13	570
1337.04	534
1345.93	424
1354.81	384
1363.68	424
1372.54	410
1381.38	378
1390.22	310
1399.05	300
1407.86	308
1416.66	294
1425.46	312
1434.24	368
1443.01	506
1451.77	608
1460.52	396
1469.25	310
1477.98	288
1486.7	294
1495.4	318
1504.1	284
1512.78	294
1521.45	286
1530.11	298
1538.76	310
1547.41	308
1556.03	314
1564.65	330
1573.26	386
1581.86	808
1590.45	612
1599.02	1224
1607.59	1352
1616.14	518
1624.69	396
1633.22	374
1641.75	356
1650.26	376
1658.76	346
1667.26	320
1675.74	330
1684.21	312
1692.67	306
1701.12	294
1709.56	312
1717.99	298
1726.41	304
1734.82	300
1743.22	300
1751.61	314
1759.99	310
1768.36	292
1776.71	298
1785.06	286
1793.4	312
1801.73	320
1810.04	306
1818.35	328
1826.65	314
1834.94	328
1843.21	324
1851.48	332
1859.74	328
1867.98	316
1876.22	308
1884.45	312
1892.67	312
1900.87	308
1909.07	332
1917.26	342
1925.43	344
1933.6	330
1941.76	342
1949.91	322
1958.05	328
1966.17	338
1974.29	336
1982.4	312
1990.5	350
1998.59	330
2006.67	354
2014.74	350
2022.8	336
2030.85	344
2038.89	362
2046.92	334
2054.94	328
2062.95	340
2070.96	350
2078.95	318
2086.93	352
2094.91	364
2102.87	340
2110.83	348
2118.77	350
2126.71	332
2134.63	326
2142.55	346
2150.46	338
2158.35	360
2166.24	356
2174.12	364
2181.99	356
2189.85	348
2197.7	378
2205.55	346
2213.38	366
2221.2	344
2229.02	370
2236.82	360
2244.62	350
2252.4	354
2260.18	354
2267.95	372
2275.71	340
2283.46	358
2291.2	368
2298.93	350
2306.65	366
2314.37	348
2322.07	356
2329.77	340
2337.45	354
2345.13	374
2352.8	388
2360.46	358
2368.11	366
2375.75	374
2383.38	372
2391.01	388
2398.62	354
2406.23	372
2413.82	374
2421.41	376
2428.99	358
2436.56	394
2444.12	398
2449.79	366