Folder: NRC_SU25_Spectral_Classification/Jesse_Dataset_v2/Pure Raman/Polystyrene/785nm

Note: README.md
# Spectral Classification Project

This repository contains implementations of various machine learning and deep learning methods for the **one-shot classification of chemical spectra**. The goal is to identify the **chemical identity** of an unknown **Raman spectrum** by finding the best match from a reference library of known spectra.

The project explores and compares **four distinct approaches**, inspired by the methods described in *[Halas et al., ACS Nano, 2023](https://doi.org/10.1021/acsnano.3c05510)*.


---

## Core Concept: Spectral Identification

The fundamental problem is to take a **high-dimensional spectrum** from an unknown sample and accurately identify it by comparing it against a **library of known spectra**. Each method in this repository tackles this problem through a different **feature extraction** and **similarity matching** strategy.

---

## Included Implementations

This repository includes four primary methods for spectral classification:

- `CaPSim` (Characteristic Peak Similarity)
- `CaPSim` with `k-NN` Classifier
- `PCA` (Principal Component Analysis) Classifier
- `Siamese Network` for One-Shot Learning

All methods assume the data is provided in **CSV format**, with one file for the **reference library** and one for the **query spectra**. The **last column** in each file should be named **`Label`** and contain the chemical identifier.

---

### 1. CaPSim (Characteristic Peak Similarity)
**Script:** `CaPSim.py`  
**Approach:** Local peak-based dot-product similarity

**Concept:**  
This method directly implements the approach described in the Halas et al. paper. It assumes that key information in a spectrum is concentrated in a few discrete **characteristic peaks (CPs)**.

**Workflow:**
- **Preprocessing:** Baseline correction and L2 normalization
- **Feature Definition:** Identify most frequent or intense peaks per class → class-specific CPs
- **Feature Extraction:** Extract maximum intensity around CPs for each query
- **Similarity Matching:** Compute mean dot-product (CaPSim score); assign query to class with highest score

---

### 2. CaPSim with k-NN Classifier
**Script:** `CaPSim_kNN.py`  
**Approach:** Local peak-based features with supervised classification

**Concept:**  
An extension of CaPSim that uses the same CP-based features but replaces dot-product similarity with a learned `k-Nearest Neighbors` classifier.

**Workflow:**
- **Preprocessing:** Same as baseline CaPSim
- **Feature Definition:** Global CP set = union of all class CPs
- **Feature Extraction:** Fixed-length feature vectors for all reference spectra
- **Training:** Train a `k-NN` model using cosine distance
- **Classification:** Predict query identity using trained model

---

### 3. PCA (Principal Component Analysis) Classifier
**Script:** `PCA_Classification.py`  
**Approach:** Global shape-based classification in PCA space

**Concept:**  
A benchmark method that uses global spectral shape via PCA. It reduces the dimensionality of the spe

File: ps-ppo-6jan25-1,0000-map3_Y00_X01.txt
204.377	828
211.048	878
217.712	922
224.369	850
231.019	734
237.661	538
244.297	388
250.924	288
257.546	278
264.16	260
270.766	254
277.365	244
283.958	212
290.543	178
297.121	172
303.693	170
310.256	176
316.813	170
323.362	176
329.905	162
336.441	170
342.969	152
349.491	162
356.006	148
362.513	142
369.014	148
375.508	150
381.994	166
388.473	188
394.947	198
401.412	222
407.871	230
414.323	182
420.768	166
427.206	164
433.637	144
440.062	140
446.479	138
452.89	124
459.293	108
465.691	98
472.081	108
478.463	104
484.84	102
491.21	98
497.573	106
503.929	110
510.279	108
516.621	108
522.957	114
529.287	120
535.609	124
541.925	152
548.234	140
554.536	128
560.832	130
567.12	140
573.403	148
579.679	120
585.948	104
592.211	112
598.466	116
604.715	128
610.958	138
617.194	294
623.424	450
629.647	130
635.864	104
642.074	88
648.276	82
654.473	84
660.664	72
666.847	74
673.025	80
679.195	80
685.36	68
691.517	78
697.669	76
703.814	100
709.953	90
716.085	90
722.21	132
728.33	132
734.443	128
740.549	178
746.65	174
752.743	196
758.831	228
764.912	220
770.986	192
777.055	202
783.117	242
789.173	308
795.222	350
801.265	280
807.302	190
813.333	158
819.357	136
825.376	114
831.387	120
837.392	144
843.392	162
849.386	124
855.372	122
861.353	114
867.328	128
873.296	128
879.258	110
885.214	114
891.164	114
897.108	122
903.046	144
908.977	136
914.903	120
920.822	102
926.735	100
932.643	98
938.543	94
944.439	102
950.328	102
956.21	110
962.088	120
967.958	124
973.824	136
979.682	182
985.534	258
991.382	746
997.222	1164
1003.06	2898
1008.89	450
1014.71	188
1020.53	224
1026.34	504
1032.14	906
1037.94	418
1043.73	212
1049.52	160
1055.3	140
1061.08	158
1066.85	170
1072.61	178
1078.37	170
1084.12	154
1089.87	162
1095.61	166
1101.34	164
1107.07	134
1112.8	132
1118.51	120
1124.22	106
1129.93	100
1135.63	106
1141.32	118
1147.01	166
1152.69	342
1158.37	342
1164.04	214
1169.71	206
1175.37	292
1181.02	518
1186.67	434
1192.31	472
1197.95	446
1203.58	456
1209.2	306
1214.82	232
1220.44	210
1226.05	182
1231.65	182
1237.25	162
1242.84	152
1248.42	162
1254	166
1259.58	172
1265.15	160
1270.71	168
1276.27	164
1281.82	160
1287.37	162
1292.91	192
1298.45	206
1303.98	208
1309.5	232
1315.02	250
1320.53	260
1326.04	286
1331.54	288
1337.04	284
1342.53	260
1348.02	266
1353.5	248
1358.98	266
1364.45	252
1369.91	272
1375.37	250
1380.82	256
1386.27	222
1391.71	224
1397.15	222
1402.58	216
1408.01	218
1413.43	220
1418.85	222
1424.26	212
1429.66	210
1435.06	238
1440.46	270
1445.85	312
1451.23	318
1456.61	268
1461.98	216
1467.35	194
1472.71	176
1478.07	180
1483.42	174
1488.77	172
1494.11	180
1499.45	164
1504.78	172
1510.11	166
1515.43	168
1520.74	148
1526.05	148
1531.36	166
1536.66	150
1541.95	148
1547.24	156
1552.52	156
1557.8	162
1563.08	156
1568.35	166
1573.61	182
1578.87	268
1584.12	388
1589.37	238
1594.61	278
1599.85	602
1605.08	538
1610.31	266
1615.53	190
1620.75	168
1625.96	152
1631.17	144
1636.37	142
1641.57	144
1646.76	140
1651.95	124
1657.13	134
1662.31	118
1667.48	134
1672.65	116
1677.81	122
1682.97	126
1688.12	124
1693.27	124
1698.41	120
1702.26	124

File: ps-ppo-6jan25-1,0000-map3_Y00_X02.txt
204.377	800
211.048	880
217.712	934
224.369	862
231.019	710
237.661	546
244.297	376
250.924	310
257.546	256
264.16	278
270.766	252
277.365	222
283.958	206
290.543	188
297.121	164
303.693	162
310.256	172
316.813	174
323.362	164
329.905	170
336.441	164
342.969	152
349.491	142
356.006	150
362.513	140
369.014	158
375.508	164
381.994	166
388.473	166
394.947	184
401.412	198
407.871	224
414.323	196
420.768	160
427.206	152
433.637	136
440.062	132
446.479	112
452.89	114
459.293	96
465.691	100
472.081	100
478.463	104
484.84	96
491.21	98
497.573	96
503.929	108
510.279	98
516.621	96
522.957	116
529.287	124
535.609	140
541.925	140
548.234	146
554.536	132
560.832	130
567.12	128
573.403	116
579.679	108
585.948	106
592.211	104
598.466	108
604.715	136
610.958	142
617.194	310
623.424	454
629.647	136
635.864	110
642.074	82
648.276	78
654.473	72
660.664	76
666.847	68
673.025	76
679.195	78
685.36	64
691.517	78
697.669	86
703.814	92
709.953	96
716.085	96
722.21	122
728.33	126
734.443	136
740.549	184
746.65	178
752.743	198
758.831	232
764.912	222
770.986	208
777.055	192
783.117	238
789.173	320
795.222	336
801.265	284
807.302	186
813.333	158
819.357	112
825.376	114
831.387	112
837.392	146
843.392	146
849.386	122
855.372	122
861.353	126
867.328	124
873.296	124
879.258	118
885.214	118
891.164	112
897.108	108
903.046	150
908.977	134
914.903	114
920.822	104
926.735	100
932.643	98
938.543	98
944.439	94
950.328	106
956.21	106
962.088	122
967.958	138
973.824	134
979.682	188
985.534	268
991.382	748
997.222	1202
1003.06	2896
1008.89	426
1014.71	186
1020.53	210
1026.34	480
1032.14	874
1037.94	422
1043.73	202
1049.52	160
1055.3	162
1061.08	160
1066.85	182
1072.61	180
1078.37	164
1084.12	170
1089.87	174
1095.61	172
1101.34	164
1107.07	144
1112.8	126
1118.51	110
1124.22	108
1129.93	116
1135.63	108
1141.32	124
1147.01	164
1152.69	358
1158.37	338
1164.04	216
1169.71	216
1175.37	304
1181.02	534
1186.67	438
1192.31	476
1197.95	474
1203.58	430
1209.2	324
1214.82	222
1220.44	196
1226.05	204
1231.65	168
1237.25	150
1242.84	164
1248.42	176
1254	164
1259.58	158
1265.15	176
1270.71	160
1276.27	172
1281.82	166
1287.37	172
1292.91	190
1298.45	216
1303.98	206
1309.5	216
1315.02	244
1320.53	256
1326.04	270
1331.54	286
1337.04	276
1342.53	250
1348.02	256
1353.5	256
1358.98	256
1364.45	270
1369.91	270
1375.37	264
1380.82	260
1386.27	252
1391.71	238
1397.15	224
1402.58	222
1408.01	202
1413.43	218
1418.85	200
1424.26	216
1429.66	220
1435.06	242
1440.46	266
1445.85	306
1451.23	324
1456.61	268
1461.98	204
1467.35	192
1472.71	180
1478.07	190
1483.42	180
1488.77	184
1494.11	188
1499.45	158
1504.78	160
1510.11	158
1515.43	162
1520.74	162
1526.05	154
1531.36	164
1536.66	160
1541.95	162
1547.24	160
1552.52	158
1557.8	164
1563.08	156
1568.35	164
1573.61	198
1578.87	270
1584.12	400
1589.37	254
1594.61	300
1599.85	624
1605.08	542
1610.31	276
1615.53	204
1620.75	168
1625.96	158
1631.17	156
1636.37	136
1641.57	148
1646.76	152
1651.95	134
1657.13	128
1662.31	130
1667.48	130
1672.65	128
1677.81	126
1682.97	130
1688.12	112
1693.27	116
1698.41	112
1702.26	116

File: ps-ppo-6jan25-1,0000-map3_Y00_X03.txt
204.377	798
211.048	876
217.712	884
224.369	870
231.019	714
237.661	526
244.297	384
250.924	310
257.546	264
264.16	258
270.766	240
277.365	216
283.958	208
290.543	188
297.121	170
303.693	160
310.256	180
316.813	168
323.362	166
329.905	166
336.441	178
342.969	154
349.491	138
356.006	154
362.513	138
369.014	142
375.508	164
381.994	156
388.473	168
394.947	174
401.412	212
407.871	242
414.323	192
420.768	152
427.206	148
433.637	136
440.062	136
446.479	124
452.89	122
459.293	106
465.691	100
472.081	114
478.463	94
484.84	96
491.21	92
497.573	98
503.929	106
510.279	100
516.621	104
522.957	106
529.287	112
535.609	142
541.925	144
548.234	136
554.536	130
560.832	126
567.12	134
573.403	130
579.679	114
585.948	110
592.211	102
598.466	100
604.715	122
610.958	142
617.194	330
623.424	470
629.647	138
635.864	106
642.074	86
648.276	88
654.473	78
660.664	74
666.847	70
673.025	72
679.195	76
685.36	70
691.517	80
697.669	82
703.814	94
709.953	92
716.085	96
722.21	130
728.33	126
734.443	130
740.549	172
746.65	186
752.743	216
758.831	226
764.912	212
770.986	206
777.055	186
783.117	238
789.173	280
795.222	344
801.265	268
807.302	184
813.333	152
819.357	126
825.376	112
831.387	110
837.392	144
843.392	154
849.386	128
855.372	120
861.353	124
867.328	118
873.296	120
879.258	114
885.214	118
891.164	106
897.108	120
903.046	136
908.977	134
914.903	124
920.822	100
926.735	96
932.643	88
938.543	86
944.439	102
950.328	102
956.21	96
962.088	126
967.958	122
973.824	136
979.682	186
985.534	274
991.382	748
997.222	1180
1003.06	2826
1008.89	472
1014.71	180
1020.53	214
1026.34	470
1032.14	876
1037.94	436
1043.73	206
1049.52	164
1055.3	148
1061.08	158
1066.85	176
1072.61	176
1078.37	160
1084.12	166
1089.87	178
1095.61	164
1101.34	168
1107.07	138
1112.8	136
1118.51	116
1124.22	84
1129.93	106
1135.63	108
1141.32	134
1147.01	166
1152.69	352
1158.37	360
1164.04	210
1169.71	210
1175.37	304
1181.02	522
1186.67	430
1192.31	468
1197.95	514
1203.58	432
1209.2	328
1214.82	232
1220.44	206
1226.05	196
1231.65	182
1237.25	162
1242.84	162
1248.42	176
1254	160
1259.58	156
1265.15	156
1270.71	168
1276.27	176
1281.82	158
1287.37	182
1292.91	204
1298.45	196
1303.98	226
1309.5	214
1315.02	256
1320.53	262
1326.04	262
1331.54	308
1337.04	282
1342.53	258
1348.02	244
1353.5	264
1358.98	250
1364.45	270
1369.91	264
1375.37	268
1380.82	258
1386.27	228
1391.71	218
1397.15	236
1402.58	204
1408.01	224
1413.43	206
1418.85	206
1424.26	218
1429.66	222
1435.06	252
1440.46	268
1445.85	336
1451.23	322
1456.61	266
1461.98	196
1467.35	186
1472.71	186
1478.07	170
1483.42	170
1488.77	168
1494.11	186
1499.45	160
1504.78	172
1510.11	172
1515.43	156
1520.74	160
1526.05	160
1531.36	164
1536.66	164
1541.95	162
1547.24	162
1552.52	154
1557.8	158
1563.08	170
1568.35	172
1573.61	184
1578.87	260
1584.12	390
1589.37	262
1594.61	318
1599.85	590
1605.08	558
1610.31	274
1615.53	190
1620.75	162
1625.96	160
1631.17	144
1636.37	150
1641.57	150
1646.76	148
1651.95	140
1657.13	140
1662.31	132
1667.48	130
1672.65	136
1677.81	122
1682.97	122
1688.12	124
1693.27	124
1698.41	118
1702.26	116

File: ps-ppo-6jan25-1,0000-map3_Y00_X04.txt
204.377	818
211.048	888
217.712	910
224.369	828
231.019	710
237.661	542
244.297	382
250.924	302
257.546	274
264.16	244
270.766	240
277.365	228
283.958	220
290.543	174
297.121	174
303.693	170
310.256	170
316.813	164
323.362	158
329.905	158
336.441	172
342.969	158
349.491	144
356.006	154
362.513	138
369.014	148
375.508	144
381.994	174
388.473	166
394.947	196
401.412	214
407.871	216
414.323	184
420.768	156
427.206	134
433.637	136
440.062	138
446.479	112
452.89	108
459.293	104
465.691	108
472.081	98
478.463	94
484.84	90
491.21	108
497.573	106
503.929	106
510.279	102
516.621	106
522.957	108
529.287	118
535.609	132
541.925	144
548.234	140
554.536	140
560.832	126
567.12	134
573.403	138
579.679	126
585.948	106
592.211	104
598.466	110
604.715	128
610.958	140
617.194	298
623.424	484
629.647	144
635.864	102
642.074	88
648.276	76
654.473	78
660.664	74
666.847	68
673.025	70
679.195	72
685.36	74
691.517	72
697.669	84
703.814	86
709.953	98
716.085	86
722.21	126
728.33	110
734.443	130
740.549	170
746.65	190
752.743	206
758.831	232
764.912	216
770.986	184
777.055	198
783.117	248
789.173	322
795.222	350
801.265	276
807.302	180
813.333	168
819.357	134
825.376	106
831.387	118
837.392	134
843.392	158
849.386	124
855.372	116
861.353	122
867.328	118
873.296	118
879.258	116
885.214	114
891.164	110
897.108	116
903.046	152
908.977	136
914.903	108
920.822	102
926.735	98
932.643	84
938.543	90
944.439	104
950.328	104
956.21	106
962.088	120
967.958	132
973.824	126
979.682	184
985.534	284
991.382	742
997.222	1212
1003.06	2884
1008.89	442
1014.71	188
1020.53	214
1026.34	486
1032.14	884
1037.94	408
1043.73	212
1049.52	164
1055.3	150
1061.08	156
1066.85	176
1072.61	172
1078.37	172
1084.12	150
1089.87	170
1095.61	162
1101.34	174
1107.07	146
1112.8	110
1118.51	116
1124.22	106
1129.93	106
1135.63	100
1141.32	126
1147.01	156
1152.69	346
1158.37	342
1164.04	220
1169.71	200
1175.37	316
1181.02	514
1186.67	430
1192.31	486
1197.95	490
1203.58	436
1209.2	326
1214.82	218
1220.44	206
1226.05	198
1231.65	174
1237.25	184
1242.84	176
1248.42	160
1254	176
1259.58	170
1265.15	168
1270.71	170
1276.27	160
1281.82	172
1287.37	178
1292.91	200
1298.45	196
1303.98	220
1309.5	220
1315.02	224
1320.53	254
1326.04	296
1331.54	294
1337.04	278
1342.53	266
1348.02	240
1353.5	262
1358.98	244
1364.45	266
1369.91	272
1375.37	272
1380.82	248
1386.27	244
1391.71	224
1397.15	220
1402.58	224
1408.01	224
1413.43	222
1418.85	208
1424.26	214
1429.66	224
1435.06	246
1440.46	266
1445.85	328
1451.23	334
1456.61	262
1461.98	208
1467.35	182
1472.71	184
1478.07	174
1483.42	178
1488.77	170
1494.11	180
1499.45	170
1504.78	168
1510.11	150
1515.43	172
1520.74	152
1526.05	162
1531.36	158
1536.66	156
1541.95	140
1547.24	152
1552.52	152
1557.8	154
1563.08	156
1568.35	158
1573.61	190
1578.87	262
1584.12	420
1589.37	246
1594.61	290
1599.85	610
1605.08	548
1610.31	280
1615.53	182
1620.75	170
1625.96	150
1631.17	144
1636.37	144
1641.57	142
1646.76	136
1651.95	140
1657.13	134
1662.31	122
1667.48	134
1672.65	126
1677.81	130
1682.97	130
1688.12	120
1693.27	112
1698.41	122
1702.26	114

File: ps-ppo-6jan25-1,0000-map3_Y00_X09.txt
204.377	810
211.048	876
217.712	892
224.369	866
231.019	720
237.661	558
244.297	382
250.924	320
257.546	290
264.16	242
270.766	248
277.365	236
283.958	208
290.543	184
297.121	180
303.693	162
310.256	174
316.813	174
323.362	162
329.905	174
336.441	172
342.969	164
349.491	162
356.006	146
362.513	140
369.014	162
375.508	158
381.994	176
388.473	182
394.947	196
401.412	210
407.871	220
414.323	180
420.768	166
427.206	146
433.637	142
440.062	136
446.479	138
452.89	112
459.293	104
465.691	106
472.081	108
478.463	102
484.84	94
491.21	96
497.573	102
503.929	112
510.279	104
516.621	106
522.957	114
529.287	124
535.609	148
541.925	148
548.234	140
554.536	134
560.832	132
567.12	124
573.403	130
579.679	128
585.948	112
592.211	110
598.466	112
604.715	130
610.958	148
617.194	302
623.424	456
629.647	152
635.864	108
642.074	88
648.276	82
654.473	72
660.664	72
666.847	74
673.025	70
679.195	64
685.36	78
691.517	76
697.669	76
703.814	102
709.953	86
716.085	102
722.21	132
728.33	142
734.443	140
740.549	186
746.65	192
752.743	208
758.831	230
764.912	232
770.986	208
777.055	204
783.117	252
789.173	308
795.222	358
801.265	282
807.302	202
813.333	170
819.357	124
825.376	102
831.387	108
837.392	144
843.392	162
849.386	138
855.372	114
861.353	120
867.328	116
873.296	126
879.258	114
885.214	112
891.164	112
897.108	120
903.046	144
908.977	140
914.903	114
920.822	94
926.735	98
932.643	92
938.543	104
944.439	98
950.328	96
956.21	106
962.088	126
967.958	134
973.824	130
979.682	184
985.534	274
991.382	770
997.222	1218
1003.06	2930
1008.89	444
1014.71	180
1020.53	212
1026.34	492
1032.14	902
1037.94	402
1043.73	216
1049.52	170
1055.3	162
1061.08	168
1066.85	172
1072.61	182
1078.37	172
1084.12	168
1089.87	160
1095.61	168
1101.34	146
1107.07	140
1112.8	126
1118.51	118
1124.22	110
1129.93	110
1135.63	112
1141.32	118
1147.01	172
1152.69	374
1158.37	330
1164.04	218
1169.71	212
1175.37	312
1181.02	516
1186.67	416
1192.31	498
1197.95	514
1203.58	432
1209.2	312
1214.82	228
1220.44	220
1226.05	200
1231.65	180
1237.25	162
1242.84	158
1248.42	170
1254	174
1259.58	180
1265.15	162
1270.71	174
1276.27	182
1281.82	184
1287.37	180
1292.91	212
1298.45	196
1303.98	226
1309.5	232
1315.02	236
1320.53	278
1326.04	294
1331.54	286
1337.04	290
1342.53	274
1348.02	258
1353.5	262
1358.98	272
1364.45	280
1369.91	290
1375.37	280
1380.82	280
1386.27	262
1391.71	242
1397.15	254
1402.58	246
1408.01	244
1413.43	228
1418.85	228
1424.26	220
1429.66	222
1435.06	252
1440.46	290
1445.85	334
1451.23	314
1456.61	250
1461.98	208
1467.35	192
1472.71	202
1478.07	180
1483.42	176
1488.77	168
1494.11	202
1499.45	176
1504.78	164
1510.11	156
1515.43	168
1520.74	172
1526.05	176
1531.36	170
1536.66	158
1541.95	154
1547.24	166
1552.52	170
1557.8	164
1563.08	168
1568.35	166
1573.61	192
1578.87	272
1584.12	396
1589.37	240
1594.61	306
1599.85	604
1605.08	568
1610.31	298
1615.53	202
1620.75	176
1625.96	164
1631.17	154
1636.37	158
1641.57	144
1646.76	152
1651.95	154
1657.13	144
1662.31	128
1667.48	142
1672.65	140
1677.81	134
1682.97	130
1688.12	130
1693.27	126
1698.41	122
1702.26	112

File: ps-ppo-6jan25-1,0000-map3_Y01_X03.txt
204.377	818
211.048	876
217.712	918
224.369	872
231.019	700
237.661	536
244.297	370
250.924	302
257.546	270
264.16	252
270.766	248
277.365	224
283.958	200
290.543	182
297.121	170
303.693	172
310.256	158
316.813	154
323.362	162
329.905	170
336.441	162
342.969	160
349.491	142
356.006	152
362.513	144
369.014	146
375.508	152
381.994	170
388.473	174
394.947	188
401.412	200
407.871	224
414.323	188
420.768	166
427.206	152
433.637	142
440.062	118
446.479	124
452.89	116
459.293	106
465.691	112
472.081	104
478.463	100
484.84	86
491.21	94
497.573	98
503.929	112
510.279	96
516.621	108
522.957	122
529.287	118
535.609	130
541.925	144
548.234	140
554.536	126
560.832	132
567.12	128
573.403	134
579.679	124
585.948	104
592.211	104
598.466	112
604.715	134
610.958	144
617.194	316
623.424	472
629.647	138
635.864	106
642.074	86
648.276	82
654.473	72
660.664	82
666.847	74
673.025	74
679.195	68
685.36	72
691.517	72
697.669	80
703.814	100
709.953	90
716.085	92
722.21	134
728.33	110
734.443	124
740.549	180
746.65	192
752.743	206
758.831	252
764.912	216
770.986	198
777.055	190
783.117	236
789.173	300
795.222	342
801.265	290
807.302	192
813.333	164
819.357	130
825.376	116
831.387	108
837.392	136
843.392	156
849.386	132
855.372	116
861.353	124
867.328	118
873.296	116
879.258	118
885.214	116
891.164	108
897.108	112
903.046	142
908.977	140
914.903	120
920.822	100
926.735	94
932.643	102
938.543	94
944.439	100
950.328	98
956.21	102
962.088	122
967.958	130
973.824	142
979.682	182
985.534	252
991.382	738
997.222	1182
1003.06	2882
1008.89	448
1014.71	196
1020.53	222
1026.34	480
1032.14	894
1037.94	398
1043.73	198
1049.52	170
1055.3	152
1061.08	154
1066.85	170
1072.61	180
1078.37	178
1084.12	160
1089.87	172
1095.61	162
1101.34	174
1107.07	140
1112.8	128
1118.51	126
1124.22	104
1129.93	110
1135.63	124
1141.32	124
1147.01	170
1152.69	348
1158.37	344
1164.04	208
1169.71	212
1175.37	290
1181.02	510
1186.67	426
1192.31	464
1197.95	504
1203.58	438
1209.2	304
1214.82	218
1220.44	210
1226.05	196
1231.65	172
1237.25	170
1242.84	160
1248.42	156
1254	176
1259.58	176
1265.15	152
1270.71	158
1276.27	174
1281.82	162
1287.37	176
1292.91	186
1298.45	204
1303.98	216
1309.5	240
1315.02	224
1320.53	278
1326.04	280
1331.54	304
1337.04	268
1342.53	262
1348.02	254
1353.5	272
1358.98	254
1364.45	268
1369.91	276
1375.37	270
1380.82	264
1386.27	254
1391.71	230
1397.15	214
1402.58	248
1408.01	242
1413.43	214
1418.85	214
1424.26	218
1429.66	204
1435.06	242
1440.46	266
1445.85	316
1451.23	316
1456.61	260
1461.98	212
1467.35	182
1472.71	168
1478.07	166
1483.42	190
1488.77	176
1494.11	184
1499.45	180
1504.78	168
1510.11	162
1515.43	160
1520.74	160
1526.05	158
1531.36	152
1536.66	158
1541.95	160
1547.24	156
1552.52	154
1557.8	158
1563.08	162
1568.35	168
1573.61	184
1578.87	256
1584.12	398
1589.37	236
1594.61	302
1599.85	622
1605.08	550
1610.31	272
1615.53	202
1620.75	170
1625.96	150
1631.17	146
1636.37	146
1641.57	154
1646.76	144
1651.95	156
1657.13	142
1662.31	130
1667.48	114
1672.65	118
1677.81	122
1682.97	128
1688.12	120
1693.27	112
1698.41	112
1702.26	114

File: ps-ppo-6jan25-1,0000-map3_Y01_X04.txt
204.377	804
211.048	888
217.712	930
224.369	870
231.019	740
237.661	528
244.297	372
250.924	320
257.546	280
264.16	258
270.766	256
277.365	212
283.958	210
290.543	198
297.121	160
303.693	166
310.256	166
316.813	166
323.362	162
329.905	166
336.441	160
342.969	162
349.491	156
356.006	134
362.513	140
369.014	146
375.508	148
381.994	170
388.473	180
394.947	184
401.412	216
407.871	200
414.323	176
420.768	152
427.206	146
433.637	142
440.062	134
446.479	128
452.89	114
459.293	114
465.691	108
472.081	98
478.463	102
484.84	98
491.21	96
497.573	100
503.929	102
510.279	102
516.621	102
522.957	106
529.287	114
535.609	138
541.925	152
548.234	134
554.536	130
560.832	136
567.12	130
573.403	126
579.679	108
585.948	112
592.211	108
598.466	104
604.715	132
610.958	152
617.194	326
623.424	476
629.647	144
635.864	100
642.074	80
648.276	74
654.473	70
660.664	68
666.847	74
673.025	74
679.195	70
685.36	80
691.517	70
697.669	86
703.814	92
709.953	102
716.085	82
722.21	130
728.33	112
734.443	136
740.549	186
746.65	176
752.743	220
758.831	226
764.912	230
770.986	180
777.055	200
783.117	246
789.173	296
795.222	328
801.265	284
807.302	190
813.333	154
819.357	120
825.376	102
831.387	116
837.392	140
843.392	152
849.386	134
855.372	124
861.353	118
867.328	126
873.296	116
879.258	116
885.214	110
891.164	102
897.108	116
903.046	146
908.977	142
914.903	120
920.822	104
926.735	92
932.643	104
938.543	104
944.439	94
950.328	106
956.21	96
962.088	120
967.958	120
973.824	142
979.682	194
985.534	272
991.382	772
997.222	1206
1003.06	2948
1008.89	442
1014.71	186
1020.53	216
1026.34	488
1032.14	866
1037.94	400
1043.73	204
1049.52	154
1055.3	144
1061.08	148
1066.85	166
1072.61	170
1078.37	164
1084.12	156
1089.87	158
1095.61	170
1101.34	162
1107.07	146
1112.8	132
1118.51	120
1124.22	102
1129.93	98
1135.63	106
1141.32	130
1147.01	168
1152.69	354
1158.37	344
1164.04	226
1169.71	222
1175.37	300
1181.02	512
1186.67	414
1192.31	470
1197.95	486
1203.58	440
1209.2	328
1214.82	232
1220.44	208
1226.05	192
1231.65	180
1237.25	168
1242.84	166
1248.42	160
1254	164
1259.58	156
1265.15	164
1270.71	160
1276.27	158
1281.82	180
1287.37	182
1292.91	198
1298.45	198
1303.98	222
1309.5	230
1315.02	246
1320.53	246
1326.04	282
1331.54	278
1337.04	288
1342.53	264
1348.02	258
1353.5	278
1358.98	262
1364.45	250
1369.91	264
1375.37	268
1380.82	260
1386.27	246
1391.71	232
1397.15	236
1402.58	236
1408.01	226
1413.43	232
1418.85	226
1424.26	216
1429.66	228
1435.06	234
1440.46	272
1445.85	326
1451.23	338
1456.61	264
1461.98	206
1467.35	200
1472.71	190
1478.07	170
1483.42	174
1488.77	162
1494.11	182
1499.45	164
1504.78	164
1510.11	168
1515.43	174
1520.74	164
1526.05	154
1531.36	166
1536.66	164
1541.95	160
1547.24	164
1552.52	150
1557.8	172
1563.08	174
1568.35	170
1573.61	202
1578.87	256
1584.12	414
1589.37	246
1594.61	304
1599.85	600
1605.08	570
1610.31	284
1615.53	200
1620.75	174
1625.96	158
1631.17	150
1636.37	148
1641.57	146
1646.76	158
1651.95	138
1657.13	142
1662.31	122
1667.48	120
1672.65	130
1677.81	128
1682.97	132
1688.12	118
1693.27	126
1698.41	130
1702.26	108