Folder: NRC_SU25_Spectral_Classification/Jesse_Dataset_v2/Pure Raman/Polystyrene/785nm (part 5)

File: ps-ppo-6jan25-1,0000-map3_Y07_X05.txt
204.377	808
211.048	880
217.712	920
224.369	912
231.019	740
237.661	544
244.297	422
250.924	334
257.546	288
264.16	264
270.766	260
277.365	248
283.958	234
290.543	212
297.121	182
303.693	188
310.256	172
316.813	174
323.362	188
329.905	192
336.441	172
342.969	182
349.491	172
356.006	160
362.513	158
369.014	170
375.508	184
381.994	166
388.473	196
394.947	202
401.412	234
407.871	232
414.323	204
420.768	184
427.206	150
433.637	154
440.062	150
446.479	136
452.89	130
459.293	126
465.691	112
472.081	114
478.463	120
484.84	104
491.21	110
497.573	116
503.929	116
510.279	114
516.621	118
522.957	124
529.287	130
535.609	152
541.925	166
548.234	144
554.536	152
560.832	134
567.12	138
573.403	146
579.679	134
585.948	120
592.211	110
598.466	122
604.715	140
610.958	162
617.194	332
623.424	460
629.647	158
635.864	110
642.074	96
648.276	88
654.473	78
660.664	86
666.847	82
673.025	80
679.195	88
685.36	86
691.517	74
697.669	94
703.814	108
709.953	98
716.085	94
722.21	140
728.33	140
734.443	142
740.549	180
746.65	188
752.743	214
758.831	252
764.912	244
770.986	216
777.055	214
783.117	244
789.173	308
795.222	366
801.265	288
807.302	192
813.333	164
819.357	128
825.376	108
831.387	120
837.392	160
843.392	166
849.386	144
855.372	150
861.353	114
867.328	128
873.296	126
879.258	112
885.214	114
891.164	112
897.108	124
903.046	142
908.977	136
914.903	120
920.822	106
926.735	106
932.643	98
938.543	94
944.439	108
950.328	114
956.21	110
962.088	120
967.958	132
973.824	142
979.682	184
985.534	280
991.382	766
997.222	1230
1003.06	2828
1008.89	416
1014.71	186
1020.53	196
1026.34	462
1032.14	892
1037.94	396
1043.73	194
1049.52	174
1055.3	160
1061.08	156
1066.85	166
1072.61	182
1078.37	182
1084.12	164
1089.87	158
1095.61	172
1101.34	156
1107.07	146
1112.8	132
1118.51	120
1124.22	112
1129.93	108
1135.63	122
1141.32	132
1147.01	176
1152.69	372
1158.37	342
1164.04	208
1169.71	206
1175.37	292
1181.02	536
1186.67	444
1192.31	482
1197.95	482
1203.58	426
1209.2	304
1214.82	240
1220.44	214
1226.05	192
1231.65	180
1237.25	180
1242.84	186
1248.42	172
1254	180
1259.58	168
1265.15	170
1270.71	178
1276.27	174
1281.82	174
1287.37	194
1292.91	188
1298.45	214
1303.98	234
1309.5	212
1315.02	250
1320.53	274
1326.04	286
1331.54	286
1337.04	288
1342.53	284
1348.02	278
1353.5	266
1358.98	276
1364.45	280
1369.91	296
1375.37	300
1380.82	276
1386.27	250
1391.71	240
1397.15	240
1402.58	224
1408.01	226
1413.43	228
1418.85	226
1424.26	220
1429.66	222
1435.06	248
1440.46	262
1445.85	340
1451.23	334
1456.61	270
1461.98	226
1467.35	196
1472.71	194
1478.07	196
1483.42	190
1488.77	194
1494.11	184
1499.45	188
1504.78	176
1510.11	174
1515.43	170
1520.74	168
1526.05	166
1531.36	154
1536.66	172
1541.95	166
1547.24	178
1552.52	168
1557.8	162
1563.08	174
1568.35	182
1573.61	206
1578.87	284
1584.12	420
1589.37	258
1594.61	310
1599.85	648
1605.08	568
1610.31	288
1615.53	198
1620.75	180
1625.96	150
1631.17	164
1636.37	152
1641.57	150
1646.76	166
1651.95	136
1657.13	126
1662.31	132
1667.48	132
1672.65	130
1677.81	138
1682.97	134
1688.12	134
1693.27	120
1698.41	120
1702.26	130

File: ps-ppo-6jan25-1,0000-map3_Y07_X09.txt
204.377	868
211.048	900
217.712	914
224.369	870
231.019	742
237.661	538
244.297	394
250.924	326
257.546	282
264.16	284
270.766	236
277.365	256
283.958	228
290.543	196
297.121	170
303.693	168
310.256	156
316.813	170
323.362	186
329.905	174
336.441	174
342.969	172
349.491	164
356.006	150
362.513	160
369.014	154
375.508	160
381.994	170
388.473	200
394.947	192
401.412	222
407.871	228
414.323	210
420.768	172
427.206	164
433.637	148
440.062	140
446.479	130
452.89	118
459.293	118
465.691	108
472.081	100
478.463	104
484.84	112
491.21	106
497.573	114
503.929	112
510.279	116
516.621	124
522.957	110
529.287	126
535.609	152
541.925	160
548.234	138
554.536	160
560.832	132
567.12	148
573.403	138
579.679	128
585.948	116
592.211	112
598.466	108
604.715	132
610.958	152
617.194	324
623.424	446
629.647	146
635.864	108
642.074	92
648.276	88
654.473	86
660.664	76
666.847	78
673.025	78
679.195	80
685.36	86
691.517	80
697.669	100
703.814	110
709.953	108
716.085	108
722.21	138
728.33	124
734.443	138
740.549	190
746.65	194
752.743	198
758.831	238
764.912	234
770.986	196
777.055	202
783.117	250
789.173	302
795.222	352
801.265	278
807.302	196
813.333	170
819.357	132
825.376	104
831.387	118
837.392	150
843.392	152
849.386	150
855.372	130
861.353	126
867.328	126
873.296	134
879.258	120
885.214	110
891.164	118
897.108	126
903.046	152
908.977	152
914.903	118
920.822	108
926.735	104
932.643	100
938.543	100
944.439	108
950.328	102
956.21	106
962.088	126
967.958	124
973.824	124
979.682	196
985.534	282
991.382	806
997.222	1272
1003.06	2872
1008.89	464
1014.71	198
1020.53	216
1026.34	496
1032.14	898
1037.94	402
1043.73	216
1049.52	162
1055.3	156
1061.08	166
1066.85	172
1072.61	186
1078.37	168
1084.12	174
1089.87	178
1095.61	158
1101.34	172
1107.07	148
1112.8	120
1118.51	116
1124.22	104
1129.93	104
1135.63	122
1141.32	144
1147.01	172
1152.69	354
1158.37	332
1164.04	222
1169.71	222
1175.37	304
1181.02	530
1186.67	454
1192.31	464
1197.95	500
1203.58	468
1209.2	330
1214.82	228
1220.44	204
1226.05	194
1231.65	188
1237.25	172
1242.84	158
1248.42	182
1254	168
1259.58	172
1265.15	168
1270.71	180
1276.27	174
1281.82	176
1287.37	190
1292.91	196
1298.45	210
1303.98	226
1309.5	244
1315.02	258
1320.53	276
1326.04	280
1331.54	296
1337.04	296
1342.53	286
1348.02	278
1353.5	264
1358.98	276
1364.45	286
1369.91	306
1375.37	290
1380.82	286
1386.27	276
1391.71	262
1397.15	252
1402.58	252
1408.01	238
1413.43	230
1418.85	232
1424.26	242
1429.66	244
1435.06	250
1440.46	298
1445.85	312
1451.23	336
1456.61	280
1461.98	226
1467.35	214
1472.71	180
1478.07	188
1483.42	192
1488.77	192
1494.11	208
1499.45	196
1504.78	172
1510.11	190
1515.43	178
1520.74	186
1526.05	172
1531.36	180
1536.66	164
1541.95	172
1547.24	180
1552.52	170
1557.8	178
1563.08	166
1568.35	190
1573.61	202
1578.87	286
1584.12	406
1589.37	252
1594.61	306
1599.85	638
1605.08	574
1610.31	286
1615.53	184
1620.75	172
1625.96	166
1631.17	162
1636.37	156
1641.57	154
1646.76	164
1651.95	146
1657.13	144
1662.31	138
1667.48	142
1672.65	132
1677.81	140
1682.97	130
1688.12	138
1693.27	134
1698.41	132
1702.26	126

File: ps-ppo-6jan25-1,0000-map3_Y08_X02.txt
204.377	798
211.048	864
217.712	878
224.369	854
231.019	718
237.661	534
244.297	376
250.924	308
257.546	266
264.16	248
270.766	256
277.365	230
283.958	202
290.543	186
297.121	162
303.693	156
310.256	158
316.813	178
323.362	160
329.905	158
336.441	160
342.969	168
349.491	148
356.006	146
362.513	152
369.014	142
375.508	156
381.994	162
388.473	174
394.947	182
401.412	212
407.871	228
414.323	192
420.768	168
427.206	148
433.637	138
440.062	134
446.479	118
452.89	116
459.293	110
465.691	96
472.081	94
478.463	100
484.84	88
491.21	98
497.573	108
503.929	108
510.279	102
516.621	102
522.957	110
529.287	116
535.609	122
541.925	144
548.234	144
554.536	132
560.832	140
567.12	128
573.403	140
579.679	114
585.948	106
592.211	106
598.466	104
604.715	142
610.958	144
617.194	312
623.424	452
629.647	144
635.864	114
642.074	96
648.276	82
654.473	78
660.664	72
666.847	80
673.025	74
679.195	72
685.36	72
691.517	80
697.669	76
703.814	96
709.953	94
716.085	88
722.21	132
728.33	134
734.443	132
740.549	178
746.65	188
752.743	192
758.831	230
764.912	206
770.986	198
777.055	206
783.117	238
789.173	312
795.222	350
801.265	288
807.302	190
813.333	168
819.357	132
825.376	108
831.387	118
837.392	140
843.392	150
849.386	138
855.372	128
861.353	118
867.328	126
873.296	124
879.258	120
885.214	104
891.164	108
897.108	116
903.046	138
908.977	136
914.903	112
920.822	96
926.735	88
932.643	92
938.543	104
944.439	94
950.328	104
956.21	106
962.088	122
967.958	128
973.824	142
979.682	184
985.534	268
991.382	770
997.222	1226
1003.06	2846
1008.89	424
1014.71	190
1020.53	216
1026.34	526
1032.14	932
1037.94	398
1043.73	188
1049.52	154
1055.3	150
1061.08	148
1066.85	160
1072.61	178
1078.37	166
1084.12	170
1089.87	170
1095.61	156
1101.34	168
1107.07	142
1112.8	122
1118.51	114
1124.22	104
1129.93	106
1135.63	106
1141.32	130
1147.01	174
1152.69	352
1158.37	346
1164.04	196
1169.71	218
1175.37	310
1181.02	546
1186.67	434
1192.31	476
1197.95	490
1203.58	452
1209.2	326
1214.82	216
1220.44	212
1226.05	204
1231.65	174
1237.25	170
1242.84	166
1248.42	160
1254	164
1259.58	166
1265.15	184
1270.71	170
1276.27	174
1281.82	164
1287.37	174
1292.91	186
1298.45	206
1303.98	212
1309.5	216
1315.02	240
1320.53	262
1326.04	298
1331.54	290
1337.04	282
1342.53	270
1348.02	264
1353.5	272
1358.98	270
1364.45	268
1369.91	274
1375.37	258
1380.82	264
1386.27	240
1391.71	236
1397.15	244
1402.58	218
1408.01	242
1413.43	214
1418.85	224
1424.26	220
1429.66	206
1435.06	254
1440.46	276
1445.85	300
1451.23	316
1456.61	262
1461.98	222
1467.35	192
1472.71	174
1478.07	168
1483.42	174
1488.77	166
1494.11	172
1499.45	184
1504.78	160
1510.11	168
1515.43	170
1520.74	162
1526.05	160
1531.36	160
1536.66	170
1541.95	156
1547.24	166
1552.52	172
1557.8	160
1563.08	160
1568.35	178
1573.61	202
1578.87	266
1584.12	388
1589.37	236
1594.61	300
1599.85	642
1605.08	558
1610.31	272
1615.53	206
1620.75	186
1625.96	162
1631.17	156
1636.37	156
1641.57	154
1646.76	152
1651.95	136
1657.13	130
1662.31	124
1667.48	128
1672.65	120
1677.81	116
1682.97	112
1688.12	114
1693.27	126
1698.41	122
1702.26	124

File: ps-ppo-6jan25-1,0000-map3_Y08_X03.txt
204.377	844
211.048	874
217.712	914
224.369	898
231.019	738
237.661	550
244.297	382
250.924	294
257.546	282
264.16	238
270.766	226
277.365	236
283.958	216
290.543	194
297.121	174
303.693	166
310.256	164
316.813	174
323.362	174
329.905	166
336.441	158
342.969	170
349.491	162
356.006	146
362.513	154
369.014	152
375.508	156
381.994	164
388.473	174
394.947	204
401.412	198
407.871	234
414.323	174
420.768	170
427.206	146
433.637	148
440.062	134
446.479	130
452.89	120
459.293	104
465.691	104
472.081	96
478.463	108
484.84	92
491.21	100
497.573	94
503.929	114
510.279	96
516.621	108
522.957	116
529.287	128
535.609	148
541.925	146
548.234	136
554.536	138
560.832	136
567.12	142
573.403	134
579.679	114
585.948	108
592.211	112
598.466	104
604.715	124
610.958	134
617.194	306
623.424	460
629.647	138
635.864	96
642.074	80
648.276	76
654.473	70
660.664	74
666.847	74
673.025	74
679.195	72
685.36	68
691.517	76
697.669	90
703.814	98
709.953	96
716.085	92
722.21	130
728.33	132
734.443	126
740.549	184
746.65	188
752.743	202
758.831	234
764.912	216
770.986	224
777.055	192
783.117	238
789.173	292
795.222	326
801.265	292
807.302	186
813.333	162
819.357	120
825.376	116
831.387	116
837.392	134
843.392	152
849.386	132
855.372	134
861.353	126
867.328	118
873.296	114
879.258	114
885.214	112
891.164	104
897.108	128
903.046	138
908.977	128
914.903	120
920.822	96
926.735	100
932.643	102
938.543	106
944.439	96
950.328	92
956.21	100
962.088	110
967.958	126
973.824	124
979.682	172
985.534	276
991.382	762
997.222	1258
1003.06	2878
1008.89	446
1014.71	190
1020.53	224
1026.34	514
1032.14	906
1037.94	410
1043.73	202
1049.52	164
1055.3	144
1061.08	154
1066.85	164
1072.61	164
1078.37	166
1084.12	150
1089.87	154
1095.61	162
1101.34	170
1107.07	138
1112.8	124
1118.51	108
1124.22	102
1129.93	110
1135.63	110
1141.32	128
1147.01	162
1152.69	336
1158.37	346
1164.04	202
1169.71	206
1175.37	306
1181.02	504
1186.67	444
1192.31	496
1197.95	520
1203.58	436
1209.2	314
1214.82	236
1220.44	202
1226.05	190
1231.65	168
1237.25	156
1242.84	170
1248.42	162
1254	160
1259.58	166
1265.15	180
1270.71	166
1276.27	172
1281.82	178
1287.37	168
1292.91	190
1298.45	206
1303.98	200
1309.5	230
1315.02	236
1320.53	262
1326.04	296
1331.54	280
1337.04	276
1342.53	254
1348.02	266
1353.5	256
1358.98	278
1364.45	280
1369.91	274
1375.37	274
1380.82	266
1386.27	246
1391.71	236
1397.15	234
1402.58	234
1408.01	234
1413.43	210
1418.85	218
1424.26	210
1429.66	218
1435.06	240
1440.46	280
1445.85	326
1451.23	332
1456.61	264
1461.98	192
1467.35	196
1472.71	186
1478.07	186
1483.42	176
1488.77	176
1494.11	194
1499.45	162
1504.78	158
1510.11	164
1515.43	178
1520.74	158
1526.05	156
1531.36	154
1536.66	144
1541.95	164
1547.24	162
1552.52	154
1557.8	150
1563.08	168
1568.35	180
1573.61	198
1578.87	264
1584.12	406
1589.37	234
1594.61	316
1599.85	602
1605.08	560
1610.31	282
1615.53	188
1620.75	178
1625.96	156
1631.17	160
1636.37	144
1641.57	146
1646.76	162
1651.95	146
1657.13	142
1662.31	132
1667.48	136
1672.65	142
1677.81	118
1682.97	132
1688.12	128
1693.27	126
1698.41	124
1702.26	122

File: ps-ppo-6jan25-1,0000-map3_Y08_X06.txt
204.377	872
211.048	912
217.712	954
224.369	876
231.019	730
237.661	556
244.297	380
250.924	312
257.546	294
264.16	268
270.766	262
277.365	258
283.958	220
290.543	212
297.121	184
303.693	184
310.256	186
316.813	190
323.362	186
329.905	188
336.441	188
342.969	180
349.491	170
356.006	160
362.513	170
369.014	162
375.508	178
381.994	202
388.473	192
394.947	212
401.412	232
407.871	252
414.323	218
420.768	188
427.206	172
433.637	170
440.062	136
446.479	148
452.89	136
459.293	138
465.691	118
472.081	130
478.463	110
484.84	122
491.21	118
497.573	120
503.929	128
510.279	124
516.621	128
522.957	140
529.287	140
535.609	154
541.925	158
548.234	154
554.536	168
560.832	152
567.12	150
573.403	140
579.679	130
585.948	114
592.211	126
598.466	126
604.715	142
610.958	156
617.194	334
623.424	470
629.647	164
635.864	122
642.074	102
648.276	98
654.473	88
660.664	84
666.847	88
673.025	90
679.195	88
685.36	92
691.517	98
697.669	106
703.814	114
709.953	108
716.085	100
722.21	144
728.33	146
734.443	152
740.549	192
746.65	186
752.743	234
758.831	244
764.912	232
770.986	222
777.055	210
783.117	252
789.173	310
795.222	352
801.265	292
807.302	220
813.333	172
819.357	130
825.376	126
831.387	128
837.392	144
843.392	160
849.386	150
855.372	132
861.353	128
867.328	136
873.296	126
879.258	130
885.214	126
891.164	122
897.108	116
903.046	130
908.977	136
914.903	118
920.822	104
926.735	100
932.643	94
938.543	96
944.439	106
950.328	110
956.21	108
962.088	126
967.958	132
973.824	140
979.682	182
985.534	278
991.382	780
997.222	1280
1003.06	2850
1008.89	440
1014.71	192
1020.53	246
1026.34	498
1032.14	900
1037.94	404
1043.73	204
1049.52	156
1055.3	154
1061.08	162
1066.85	180
1072.61	182
1078.37	178
1084.12	176
1089.87	178
1095.61	168
1101.34	188
1107.07	138
1112.8	134
1118.51	120
1124.22	112
1129.93	112
1135.63	110
1141.32	140
1147.01	174
1152.69	374
1158.37	336
1164.04	226
1169.71	220
1175.37	304
1181.02	520
1186.67	438
1192.31	504
1197.95	506
1203.58	456
1209.2	336
1214.82	222
1220.44	214
1226.05	196
1231.65	172
1237.25	180
1242.84	172
1248.42	160
1254	178
1259.58	166
1265.15	170
1270.71	168
1276.27	172
1281.82	196
1287.37	184
1292.91	206
1298.45	208
1303.98	222
1309.5	238
1315.02	256
1320.53	252
1326.04	276
1331.54	300
1337.04	288
1342.53	266
1348.02	268
1353.5	282
1358.98	276
1364.45	278
1369.91	286
1375.37	288
1380.82	288
1386.27	274
1391.71	242
1397.15	242
1402.58	250
1408.01	234
1413.43	240
1418.85	220
1424.26	228
1429.66	230
1435.06	248
1440.46	292
1445.85	328
1451.23	332
1456.61	264
1461.98	220
1467.35	206
1472.71	198
1478.07	194
1483.42	174
1488.77	186
1494.11	204
1499.45	178
1504.78	182
1510.11	176
1515.43	168
1520.74	174
1526.05	174
1531.36	166
1536.66	158
1541.95	162
1547.24	168
1552.52	168
1557.8	166
1563.08	174
1568.35	184
1573.61	198
1578.87	276
1584.12	404
1589.37	266
1594.61	324
1599.85	602
1605.08	558
1610.31	264
1615.53	204
1620.75	168
1625.96	158
1631.17	154
1636.37	160
1641.57	146
1646.76	164
1651.95	148
1657.13	140
1662.31	138
1667.48	136
1672.65	140
1677.81	136
1682.97	136
1688.12	130
1693.27	136
1698.41	120
1702.26	132

File: ps-ppo-6jan25-1,0000-map3_Y08_X07.txt
204.377	856
211.048	870
217.712	922
224.369	896
231.019	712
237.661	552
244.297	382
250.924	320
257.546	292
264.16	276
270.766	238
277.365	242
283.958	204
290.543	184
297.121	176
303.693	160
310.256	176
316.813	168
323.362	170
329.905	176
336.441	174
342.969	168
349.491	154
356.006	156
362.513	150
369.014	146
375.508	160
381.994	166
388.473	184
394.947	200
401.412	216
407.871	240
414.323	202
420.768	178
427.206	154
433.637	148
440.062	134
446.479	130
452.89	116
459.293	126
465.691	110
472.081	118
478.463	106
484.84	102
491.21	104
497.573	112
503.929	118
510.279	100
516.621	108
522.957	120
529.287	130
535.609	150
541.925	156
548.234	150
554.536	142
560.832	130
567.12	136
573.403	144
579.679	128
585.948	122
592.211	116
598.466	122
604.715	148
610.958	150
617.194	322
623.424	456
629.647	150
635.864	114
642.074	86
648.276	86
654.473	90
660.664	86
666.847	88
673.025	86
679.195	78
685.36	84
691.517	88
697.669	94
703.814	104
709.953	102
716.085	100
722.21	144
728.33	130
734.443	140
740.549	178
746.65	186
752.743	214
758.831	238
764.912	214
770.986	220
777.055	204
783.117	234
789.173	322
795.222	354
801.265	294
807.302	198
813.333	172
819.357	134
825.376	116
831.387	112
837.392	150
843.392	158
849.386	132
855.372	124
861.353	126
867.328	126
873.296	128
879.258	128
885.214	108
891.164	110
897.108	124
903.046	142
908.977	142
914.903	126
920.822	106
926.735	92
932.643	106
938.543	106
944.439	100
950.328	102
956.21	112
962.088	124
967.958	140
973.824	122
979.682	172
985.534	296
991.382	812
997.222	1240
1003.06	2814
1008.89	438
1014.71	196
1020.53	212
1026.34	486
1032.14	886
1037.94	418
1043.73	192
1049.52	168
1055.3	152
1061.08	136
1066.85	178
1072.61	180
1078.37	174
1084.12	168
1089.87	160
1095.61	170
1101.34	172
1107.07	148
1112.8	144
1118.51	112
1124.22	96
1129.93	114
1135.63	120
1141.32	130
1147.01	198
1152.69	362
1158.37	362
1164.04	194
1169.71	206
1175.37	316
1181.02	544
1186.67	426
1192.31	484
1197.95	518
1203.58	448
1209.2	328
1214.82	236
1220.44	204
1226.05	204
1231.65	192
1237.25	170
1242.84	178
1248.42	170
1254	168
1259.58	174
1265.15	172
1270.71	162
1276.27	188
1281.82	180
1287.37	192
1292.91	198
1298.45	224
1303.98	226
1309.5	238
1315.02	240
1320.53	276
1326.04	300
1331.54	296
1337.04	288
1342.53	270
1348.02	270
1353.5	278
1358.98	274
1364.45	264
1369.91	288
1375.37	272
1380.82	284
1386.27	256
1391.71	252
1397.15	256
1402.58	256
1408.01	232
1413.43	238
1418.85	252
1424.26	224
1429.66	222
1435.06	254
1440.46	286
1445.85	324
1451.23	346
1456.61	282
1461.98	216
1467.35	204
1472.71	200
1478.07	190
1483.42	188
1488.77	196
1494.11	192
1499.45	190
1504.78	176
1510.11	166
1515.43	172
1520.74	180
1526.05	174
1531.36	162
1536.66	168
1541.95	154
1547.24	162
1552.52	170
1557.8	168
1563.08	172
1568.35	184
1573.61	206
1578.87	276
1584.12	412
1589.37	254
1594.61	324
1599.85	632
1605.08	550
1610.31	282
1615.53	202
1620.75	186
1625.96	158
1631.17	148
1636.37	156
1641.57	162
1646.76	160
1651.95	144
1657.13	140
1662.31	138
1667.48	130
1672.65	140
1677.81	138
1682.97	134
1688.12	132
1693.27	116
1698.41	128
1702.26	124

File: ps-ppo-6jan25-1,0000-map3_Y08_X08.txt
204.377	858
211.048	884
217.712	912
224.369	908
231.019	724
237.661	544
244.297	386
250.924	312
257.546	274
264.16	258
270.766	246
277.365	224
283.958	206
290.543	198
297.121	186
303.693	184
310.256	184
316.813	174
323.362	174
329.905	182
336.441	186
342.969	174
349.491	154
356.006	170
362.513	160
369.014	156
375.508	176
381.994	176
388.473	194
394.947	196
401.412	222
407.871	240
414.323	218
420.768	182
427.206	154
433.637	148
440.062	136
446.479	124
452.89	130
459.293	116
465.691	116
472.081	106
478.463	110
484.84	110
491.21	116
497.573	118
503.929	112
510.279	126
516.621	128
522.957	120
529.287	136
535.609	142
541.925	150
548.234	146
554.536	142
560.832	142
567.12	136
573.403	150
579.679	128
585.948	124
592.211	118
598.466	122
604.715	138
610.958	162
617.194	340
623.424	474
629.647	156
635.864	106
642.074	96
648.276	94
654.473	80
660.664	86
666.847	86
673.025	84
679.195	86
685.36	86
691.517	88
697.669	96
703.814	102
709.953	92
716.085	98
722.21	138
728.33	142
734.443	148
740.549	188
746.65	194
752.743	216
758.831	224
764.912	232
770.986	218
777.055	210
783.117	242
789.173	312
795.222	354
801.265	282
807.302	206
813.333	172
819.357	122
825.376	118
831.387	120
837.392	140
843.392	156
849.386	148
855.372	126
861.353	136
867.328	126
873.296	124
879.258	128
885.214	112
891.164	120
897.108	116
903.046	144
908.977	142
914.903	122
920.822	102
926.735	92
932.643	96
938.543	100
944.439	114
950.328	104
956.21	108
962.088	132
967.958	130
973.824	136
979.682	192
985.534	288
991.382	834
997.222	1254
1003.06	2870
1008.89	444
1014.71	192
1020.53	224
1026.34	520
1032.14	914
1037.94	396
1043.73	200
1049.52	162
1055.3	160
1061.08	150
1066.85	182
1072.61	176
1078.37	180
1084.12	166
1089.87	162
1095.61	164
1101.34	170
1107.07	146
1112.8	140
1118.51	134
1124.22	118
1129.93	114
1135.63	114
1141.32	140
1147.01	176
1152.69	376
1158.37	352
1164.04	206
1169.71	222
1175.37	306
1181.02	538
1186.67	434
1192.31	466
1197.95	506
1203.58	446
1209.2	316
1214.82	244
1220.44	212
1226.05	194
1231.65	194
1237.25	178
1242.84	172
1248.42	184
1254	178
1259.58	182
1265.15	180
1270.71	176
1276.27	158
1281.82	168
1287.37	194
1292.91	196
1298.45	216
1303.98	214
1309.5	240
1315.02	258
1320.53	270
1326.04	308
1331.54	300
1337.04	298
1342.53	272
1348.02	264
1353.5	290
1358.98	276
1364.45	286
1369.91	286
1375.37	296
1380.82	272
1386.27	260
1391.71	252
1397.15	248
1402.58	260
1408.01	234
1413.43	230
1418.85	236
1424.26	206
1429.66	230
1435.06	274
1440.46	296
1445.85	338
1451.23	336
1456.61	266
1461.98	210
1467.35	196
1472.71	196
1478.07	200
1483.42	194
1488.77	190
1494.11	186
1499.45	174
1504.78	174
1510.11	182
1515.43	174
1520.74	174
1526.05	166
1531.36	184
1536.66	172
1541.95	174
1547.24	166
1552.52	164
1557.8	172
1563.08	164
1568.35	176
1573.61	204
1578.87	268
1584.12	402
1589.37	256
1594.61	312
1599.85	638
1605.08	550
1610.31	290
1615.53	204
1620.75	172
1625.96	172
1631.17	174
1636.37	152
1641.57	158
1646.76	168
1651.95	142
1657.13	134
1662.31	144
1667.48	142
1672.65	140
1677.81	130
1682.97	124
1688.12	128
1693.27	122
1698.41	126
1702.26	130

File: ps-ppo-6jan25-1,0000-map3_Y08_X10.txt
204.377	852
211.048	890
217.712	924
224.369	842
231.019	720
237.661	540
244.297	380
250.924	326
257.546	268
264.16	272
270.766	252
277.365	234
283.958	198
290.543	190
297.121	176
303.693	182
310.256	184
316.813	176
323.362	166
329.905	168
336.441	164
342.969	166
349.491	156
356.006	150
362.513	156
369.014	152
375.508	152
381.994	174
388.473	200
394.947	192
401.412	216
407.871	224
414.323	196
420.768	164
427.206	160
433.637	142
440.062	132
446.479	140
452.89	110
459.293	112
465.691	108
472.081	104
478.463	98
484.84	102
491.21	104
497.573	104
503.929	114
510.279	104
516.621	104
522.957	122
529.287	130
535.609	136
541.925	148
548.234	144
554.536	136
560.832	140
567.12	124
573.403	132
579.679	122
585.948	120
592.211	116
598.466	118
604.715	132
610.958	160
617.194	322
623.424	468
629.647	152
635.864	110
642.074	88
648.276	80
654.473	84
660.664	84
666.847	84
673.025	74
679.195	86
685.36	76
691.517	80
697.669	90
703.814	96
709.953	102
716.085	102
722.21	134
728.33	134
734.443	130
740.549	190
746.65	198
752.743	200
758.831	232
764.912	218
770.986	206
777.055	202
783.117	250
789.173	304
795.222	358
801.265	282
807.302	194
813.333	156
819.357	128
825.376	112
831.387	114
837.392	146
843.392	164
849.386	134
855.372	126
861.353	122
867.328	120
873.296	122
879.258	124
885.214	102
891.164	118
897.108	120
903.046	142
908.977	144
914.903	124
920.822	104
926.735	96
932.643	106
938.543	104
944.439	104
950.328	116
956.21	106
962.088	106
967.958	122
973.824	134
979.682	188
985.534	280
991.382	794
997.222	1260
1003.06	2794
1008.89	446
1014.71	188
1020.53	224
1026.34	514
1032.14	890
1037.94	408
1043.73	206
1049.52	166
1055.3	156
1061.08	166
1066.85	166
1072.61	182
1078.37	174
1084.12	168
1089.87	168
1095.61	160
1101.34	172
1107.07	136
1112.8	136
1118.51	120
1124.22	116
1129.93	120
1135.63	120
1141.32	124
1147.01	180
1152.69	380
1158.37	336
1164.04	214
1169.71	224
1175.37	304
1181.02	526
1186.67	450
1192.31	490
1197.95	512
1203.58	452
1209.2	310
1214.82	252
1220.44	214
1226.05	214
1231.65	174
1237.25	172
1242.84	184
1248.42	176
1254	168
1259.58	166
1265.15	172
1270.71	168
1276.27	170
1281.82	182
1287.37	190
1292.91	204
1298.45	210
1303.98	222
1309.5	234
1315.02	260
1320.53	260
1326.04	296
1331.54	306
1337.04	284
1342.53	278
1348.02	280
1353.5	286
1358.98	286
1364.45	290
1369.91	304
1375.37	306
1380.82	298
1386.27	266
1391.71	248
1397.15	252
1402.58	258
1408.01	226
1413.43	252
1418.85	228
1424.26	248
1429.66	218
1435.06	280
1440.46	304
1445.85	326
1451.23	322
1456.61	288
1461.98	232
1467.35	206
1472.71	196
1478.07	186
1483.42	190
1488.77	184
1494.11	192
1499.45	186
1504.78	180
1510.11	180
1515.43	162
1520.74	168
1526.05	170
1531.36	178
1536.66	178
1541.95	164
1547.24	174
1552.52	172
1557.8	168
1563.08	168
1568.35	182
1573.61	204
1578.87	272
1584.12	406
1589.37	262
1594.61	304
1599.85	624
1605.08	548
1610.31	296
1615.53	206
1620.75	166
1625.96	174
1631.17	162
1636.37	152
1641.57	154
1646.76	160
1651.95	144
1657.13	142
1662.31	158
1667.48	140
1672.65	144
1677.81	140
1682.97	132
1688.12	136
1693.27	124
1698.41	128
1702.26	134