Folder: NRC_SU25_Spectral_Classification/Jesse_Dataset_v2/Pure Raman/Polystyrene/785nm (part 2)

File: ps-ppo-6jan25-1,0000-map3_Y01_X09.txt
204.377	840
211.048	882
217.712	908
224.369	878
231.019	740
237.661	556
244.297	390
250.924	296
257.546	262
264.16	260
270.766	242
277.365	240
283.958	212
290.543	190
297.121	178
303.693	164
310.256	160
316.813	172
323.362	168
329.905	162
336.441	170
342.969	158
349.491	148
356.006	142
362.513	146
369.014	160
375.508	154
381.994	158
388.473	180
394.947	200
401.412	202
407.871	238
414.323	204
420.768	170
427.206	156
433.637	138
440.062	140
446.479	118
452.89	114
459.293	112
465.691	98
472.081	102
478.463	100
484.84	104
491.21	98
497.573	94
503.929	110
510.279	106
516.621	102
522.957	118
529.287	114
535.609	132
541.925	156
548.234	136
554.536	148
560.832	128
567.12	134
573.403	138
579.679	114
585.948	122
592.211	104
598.466	110
604.715	136
610.958	140
617.194	322
623.424	466
629.647	138
635.864	100
642.074	88
648.276	80
654.473	80
660.664	74
666.847	64
673.025	72
679.195	78
685.36	74
691.517	78
697.669	94
703.814	104
709.953	94
716.085	100
722.21	132
728.33	132
734.443	122
740.549	180
746.65	174
752.743	202
758.831	234
764.912	222
770.986	194
777.055	202
783.117	234
789.173	294
795.222	358
801.265	290
807.302	196
813.333	156
819.357	126
825.376	112
831.387	106
837.392	130
843.392	162
849.386	136
855.372	128
861.353	128
867.328	116
873.296	132
879.258	120
885.214	106
891.164	112
897.108	114
903.046	140
908.977	142
914.903	112
920.822	92
926.735	98
932.643	100
938.543	104
944.439	98
950.328	96
956.21	102
962.088	118
967.958	120
973.824	140
979.682	180
985.534	282
991.382	774
997.222	1190
1003.06	2874
1008.89	444
1014.71	188
1020.53	218
1026.34	484
1032.14	872
1037.94	412
1043.73	218
1049.52	162
1055.3	156
1061.08	158
1066.85	186
1072.61	176
1078.37	170
1084.12	172
1089.87	160
1095.61	164
1101.34	170
1107.07	140
1112.8	144
1118.51	122
1124.22	114
1129.93	110
1135.63	118
1141.32	140
1147.01	174
1152.69	348
1158.37	342
1164.04	224
1169.71	222
1175.37	290
1181.02	534
1186.67	422
1192.31	462
1197.95	496
1203.58	424
1209.2	344
1214.82	246
1220.44	216
1226.05	192
1231.65	182
1237.25	176
1242.84	168
1248.42	160
1254	176
1259.58	168
1265.15	178
1270.71	178
1276.27	176
1281.82	178
1287.37	172
1292.91	176
1298.45	208
1303.98	218
1309.5	220
1315.02	254
1320.53	266
1326.04	282
1331.54	302
1337.04	276
1342.53	260
1348.02	256
1353.5	274
1358.98	274
1364.45	284
1369.91	292
1375.37	272
1380.82	266
1386.27	264
1391.71	252
1397.15	248
1402.58	224
1408.01	224
1413.43	238
1418.85	214
1424.26	232
1429.66	230
1435.06	254
1440.46	294
1445.85	330
1451.23	336
1456.61	268
1461.98	210
1467.35	182
1472.71	194
1478.07	186
1483.42	186
1488.77	184
1494.11	180
1499.45	170
1504.78	162
1510.11	170
1515.43	176
1520.74	164
1526.05	158
1531.36	158
1536.66	168
1541.95	160
1547.24	160
1552.52	176
1557.8	158
1563.08	154
1568.35	172
1573.61	194
1578.87	276
1584.12	410
1589.37	252
1594.61	292
1599.85	632
1605.08	576
1610.31	272
1615.53	208
1620.75	188
1625.96	162
1631.17	144
1636.37	146
1641.57	154
1646.76	154
1651.95	146
1657.13	128
1662.31	126
1667.48	138
1672.65	130
1677.81	126
1682.97	130
1688.12	124
1693.27	122
1698.41	114
1702.26	130

File: ps-ppo-6jan25-1,0000-map3_Y01_X10.txt
204.377	838
211.048	906
217.712	934
224.369	882
231.019	734
237.661	548
244.297	372
250.924	308
257.546	284
264.16	268
270.766	256
277.365	228
283.958	202
290.543	192
297.121	172
303.693	150
310.256	168
316.813	164
323.362	168
329.905	176
336.441	160
342.969	162
349.491	144
356.006	150
362.513	144
369.014	138
375.508	164
381.994	164
388.473	186
394.947	194
401.412	230
407.871	232
414.323	194
420.768	158
427.206	154
433.637	136
440.062	138
446.479	122
452.89	114
459.293	98
465.691	102
472.081	104
478.463	106
484.84	102
491.21	100
497.573	98
503.929	108
510.279	104
516.621	108
522.957	122
529.287	116
535.609	134
541.925	152
548.234	152
554.536	132
560.832	136
567.12	126
573.403	140
579.679	116
585.948	112
592.211	112
598.466	114
604.715	132
610.958	152
617.194	330
623.424	476
629.647	144
635.864	108
642.074	86
648.276	72
654.473	80
660.664	80
666.847	78
673.025	74
679.195	78
685.36	82
691.517	82
697.669	86
703.814	98
709.953	86
716.085	90
722.21	136
728.33	138
734.443	138
740.549	180
746.65	188
752.743	208
758.831	236
764.912	232
770.986	202
777.055	194
783.117	248
789.173	316
795.222	360
801.265	274
807.302	192
813.333	160
819.357	124
825.376	112
831.387	116
837.392	136
843.392	154
849.386	140
855.372	138
861.353	130
867.328	130
873.296	130
879.258	122
885.214	108
891.164	116
897.108	118
903.046	142
908.977	134
914.903	110
920.822	98
926.735	92
932.643	100
938.543	94
944.439	92
950.328	100
956.21	92
962.088	124
967.958	118
973.824	136
979.682	176
985.534	276
991.382	792
997.222	1240
1003.06	2854
1008.89	458
1014.71	190
1020.53	224
1026.34	484
1032.14	884
1037.94	416
1043.73	214
1049.52	172
1055.3	154
1061.08	160
1066.85	166
1072.61	176
1078.37	166
1084.12	172
1089.87	154
1095.61	182
1101.34	164
1107.07	152
1112.8	138
1118.51	118
1124.22	118
1129.93	104
1135.63	106
1141.32	130
1147.01	182
1152.69	372
1158.37	342
1164.04	216
1169.71	206
1175.37	294
1181.02	496
1186.67	448
1192.31	486
1197.95	514
1203.58	422
1209.2	322
1214.82	232
1220.44	212
1226.05	196
1231.65	190
1237.25	168
1242.84	188
1248.42	166
1254	168
1259.58	164
1265.15	170
1270.71	176
1276.27	174
1281.82	176
1287.37	180
1292.91	192
1298.45	204
1303.98	228
1309.5	238
1315.02	244
1320.53	284
1326.04	294
1331.54	306
1337.04	296
1342.53	268
1348.02	264
1353.5	270
1358.98	276
1364.45	290
1369.91	274
1375.37	264
1380.82	256
1386.27	252
1391.71	234
1397.15	250
1402.58	236
1408.01	240
1413.43	232
1418.85	230
1424.26	216
1429.66	230
1435.06	268
1440.46	284
1445.85	330
1451.23	346
1456.61	256
1461.98	222
1467.35	196
1472.71	196
1478.07	190
1483.42	186
1488.77	188
1494.11	188
1499.45	178
1504.78	172
1510.11	164
1515.43	180
1520.74	178
1526.05	172
1531.36	170
1536.66	162
1541.95	172
1547.24	166
1552.52	162
1557.8	160
1563.08	170
1568.35	176
1573.61	206
1578.87	270
1584.12	394
1589.37	238
1594.61	312
1599.85	644
1605.08	544
1610.31	280
1615.53	198
1620.75	190
1625.96	170
1631.17	156
1636.37	156
1641.57	144
1646.76	142
1651.95	140
1657.13	132
1662.31	134
1667.48	140
1672.65	128
1677.81	132
1682.97	132
1688.12	128
1693.27	132
1698.41	136
1702.26	118

File: ps-ppo-6jan25-1,0000-map3_Y02_X04.txt
204.377	834
211.048	876
217.712	928
224.369	884
231.019	710
237.661	516
244.297	384
250.924	302
257.546	278
264.16	268
270.766	242
277.365	226
283.958	210
290.543	168
297.121	156
303.693	172
310.256	164
316.813	170
323.362	162
329.905	174
336.441	168
342.969	158
349.491	136
356.006	140
362.513	146
369.014	130
375.508	152
381.994	170
388.473	174
394.947	176
401.412	228
407.871	232
414.323	192
420.768	156
427.206	152
433.637	138
440.062	136
446.479	116
452.89	112
459.293	102
465.691	104
472.081	102
478.463	94
484.84	100
491.21	94
497.573	112
503.929	108
510.279	102
516.621	104
522.957	110
529.287	124
535.609	126
541.925	154
548.234	142
554.536	128
560.832	136
567.12	134
573.403	132
579.679	118
585.948	104
592.211	108
598.466	106
604.715	116
610.958	146
617.194	318
623.424	450
629.647	140
635.864	108
642.074	86
648.276	76
654.473	72
660.664	74
666.847	74
673.025	72
679.195	74
685.36	80
691.517	72
697.669	86
703.814	98
709.953	94
716.085	92
722.21	130
728.33	130
734.443	128
740.549	172
746.65	182
752.743	200
758.831	234
764.912	210
770.986	202
777.055	192
783.117	250
789.173	298
795.222	328
801.265	258
807.302	190
813.333	146
819.357	124
825.376	110
831.387	114
837.392	142
843.392	164
849.386	138
855.372	126
861.353	120
867.328	126
873.296	118
879.258	112
885.214	108
891.164	116
897.108	116
903.046	150
908.977	136
914.903	116
920.822	102
926.735	90
932.643	96
938.543	102
944.439	100
950.328	106
956.21	110
962.088	112
967.958	128
973.824	136
979.682	178
985.534	266
991.382	754
997.222	1202
1003.06	2878
1008.89	452
1014.71	196
1020.53	218
1026.34	470
1032.14	896
1037.94	408
1043.73	210
1049.52	170
1055.3	152
1061.08	158
1066.85	168
1072.61	160
1078.37	170
1084.12	154
1089.87	146
1095.61	176
1101.34	154
1107.07	140
1112.8	128
1118.51	116
1124.22	104
1129.93	98
1135.63	110
1141.32	134
1147.01	174
1152.69	346
1158.37	354
1164.04	226
1169.71	228
1175.37	290
1181.02	530
1186.67	406
1192.31	452
1197.95	488
1203.58	416
1209.2	316
1214.82	242
1220.44	210
1226.05	202
1231.65	176
1237.25	168
1242.84	162
1248.42	170
1254	158
1259.58	164
1265.15	170
1270.71	174
1276.27	172
1281.82	166
1287.37	184
1292.91	200
1298.45	204
1303.98	222
1309.5	208
1315.02	236
1320.53	262
1326.04	282
1331.54	306
1337.04	286
1342.53	262
1348.02	254
1353.5	270
1358.98	266
1364.45	272
1369.91	266
1375.37	272
1380.82	250
1386.27	236
1391.71	212
1397.15	226
1402.58	246
1408.01	220
1413.43	228
1418.85	230
1424.26	198
1429.66	216
1435.06	226
1440.46	278
1445.85	316
1451.23	336
1456.61	248
1461.98	212
1467.35	188
1472.71	182
1478.07	164
1483.42	178
1488.77	176
1494.11	174
1499.45	174
1504.78	168
1510.11	170
1515.43	164
1520.74	162
1526.05	166
1531.36	158
1536.66	166
1541.95	160
1547.24	162
1552.52	158
1557.8	148
1563.08	174
1568.35	168
1573.61	184
1578.87	244
1584.12	410
1589.37	258
1594.61	306
1599.85	612
1605.08	558
1610.31	272
1615.53	186
1620.75	166
1625.96	166
1631.17	146
1636.37	142
1641.57	136
1646.76	142
1651.95	138
1657.13	130
1662.31	136
1667.48	126
1672.65	126
1677.81	124
1682.97	126
1688.12	108
1693.27	124
1698.41	124
1702.26	114

File: ps-ppo-6jan25-1,0000-map3_Y02_X05.txt
204.377	848
211.048	838
217.712	892
224.369	896
231.019	720
237.661	532
244.297	380
250.924	296
257.546	270
264.16	262
270.766	248
277.365	242
283.958	216
290.543	184
297.121	174
303.693	178
310.256	162
316.813	174
323.362	168
329.905	164
336.441	162
342.969	150
349.491	142
356.006	144
362.513	142
369.014	152
375.508	158
381.994	152
388.473	184
394.947	196
401.412	222
407.871	236
414.323	202
420.768	164
427.206	150
433.637	124
440.062	140
446.479	124
452.89	112
459.293	110
465.691	114
472.081	112
478.463	100
484.84	94
491.21	98
497.573	106
503.929	106
510.279	102
516.621	104
522.957	108
529.287	116
535.609	146
541.925	146
548.234	138
554.536	122
560.832	134
567.12	136
573.403	144
579.679	118
585.948	108
592.211	114
598.466	112
604.715	138
610.958	142
617.194	304
623.424	480
629.647	148
635.864	96
642.074	82
648.276	70
654.473	76
660.664	80
666.847	76
673.025	76
679.195	74
685.36	72
691.517	76
697.669	86
703.814	96
709.953	88
716.085	96
722.21	130
728.33	124
734.443	122
740.549	174
746.65	188
752.743	202
758.831	228
764.912	230
770.986	200
777.055	180
783.117	238
789.173	304
795.222	354
801.265	274
807.302	202
813.333	168
819.357	122
825.376	106
831.387	122
837.392	134
843.392	154
849.386	142
855.372	118
861.353	122
867.328	126
873.296	108
879.258	120
885.214	110
891.164	112
897.108	112
903.046	138
908.977	148
914.903	112
920.822	102
926.735	86
932.643	86
938.543	98
944.439	98
950.328	96
956.21	108
962.088	118
967.958	120
973.824	130
979.682	162
985.534	278
991.382	760
997.222	1236
1003.06	2888
1008.89	470
1014.71	190
1020.53	234
1026.34	486
1032.14	872
1037.94	400
1043.73	212
1049.52	172
1055.3	158
1061.08	154
1066.85	168
1072.61	172
1078.37	174
1084.12	166
1089.87	154
1095.61	180
1101.34	174
1107.07	140
1112.8	128
1118.51	116
1124.22	108
1129.93	100
1135.63	110
1141.32	128
1147.01	184
1152.69	346
1158.37	334
1164.04	220
1169.71	210
1175.37	294
1181.02	526
1186.67	416
1192.31	490
1197.95	510
1203.58	448
1209.2	334
1214.82	228
1220.44	206
1226.05	194
1231.65	166
1237.25	166
1242.84	166
1248.42	164
1254	168
1259.58	166
1265.15	162
1270.71	164
1276.27	168
1281.82	182
1287.37	186
1292.91	194
1298.45	198
1303.98	210
1309.5	220
1315.02	230
1320.53	272
1326.04	284
1331.54	292
1337.04	282
1342.53	268
1348.02	244
1353.5	266
1358.98	270
1364.45	280
1369.91	260
1375.37	276
1380.82	264
1386.27	254
1391.71	228
1397.15	212
1402.58	224
1408.01	220
1413.43	222
1418.85	212
1424.26	206
1429.66	214
1435.06	240
1440.46	300
1445.85	314
1451.23	316
1456.61	266
1461.98	212
1467.35	194
1472.71	172
1478.07	174
1483.42	176
1488.77	178
1494.11	194
1499.45	176
1504.78	154
1510.11	158
1515.43	168
1520.74	164
1526.05	148
1531.36	162
1536.66	158
1541.95	152
1547.24	156
1552.52	158
1557.8	160
1563.08	168
1568.35	192
1573.61	190
1578.87	252
1584.12	398
1589.37	244
1594.61	310
1599.85	596
1605.08	562
1610.31	272
1615.53	188
1620.75	168
1625.96	158
1631.17	152
1636.37	150
1641.57	156
1646.76	150
1651.95	142
1657.13	144
1662.31	126
1667.48	126
1672.65	136
1677.81	120
1682.97	130
1688.12	122
1693.27	122
1698.41	122
1702.26	112

File: ps-ppo-6jan25-1,0000-map3_Y02_X06.txt
204.377	844
211.048	860
217.712	898
224.369	876
231.019	696
237.661	576
244.297	382
250.924	310
257.546	272
264.16	256
270.766	252
277.365	220
283.958	214
290.543	192
297.121	174
303.693	168
310.256	166
316.813	176
323.362	162
329.905	158
336.441	172
342.969	148
349.491	142
356.006	136
362.513	136
369.014	150
375.508	164
381.994	170
388.473	172
394.947	190
401.412	218
407.871	230
414.323	186
420.768	178
427.206	146
433.637	140
440.062	132
446.479	128
452.89	120
459.293	100
465.691	108
472.081	96
478.463	98
484.84	90
491.21	90
497.573	96
503.929	112
510.279	110
516.621	108
522.957	96
529.287	120
535.609	144
541.925	136
548.234	148
554.536	134
560.832	132
567.12	130
573.403	142
579.679	110
585.948	100
592.211	102
598.466	106
604.715	128
610.958	138
617.194	308
623.424	478
629.647	144
635.864	104
642.074	80
648.276	82
654.473	76
660.664	74
666.847	68
673.025	78
679.195	70
685.36	78
691.517	82
697.669	88
703.814	100
709.953	86
716.085	92
722.21	132
728.33	124
734.443	132
740.549	166
746.65	190
752.743	204
758.831	244
764.912	208
770.986	196
777.055	194
783.117	248
789.173	302
795.222	350
801.265	286
807.302	194
813.333	162
819.357	128
825.376	108
831.387	118
837.392	148
843.392	170
849.386	130
855.372	128
861.353	122
867.328	122
873.296	128
879.258	118
885.214	122
891.164	108
897.108	116
903.046	138
908.977	150
914.903	116
920.822	96
926.735	90
932.643	104
938.543	102
944.439	98
950.328	106
956.21	106
962.088	118
967.958	130
973.824	146
979.682	176
985.534	266
991.382	744
997.222	1188
1003.06	2868
1008.89	432
1014.71	200
1020.53	226
1026.34	488
1032.14	910
1037.94	420
1043.73	202
1049.52	142
1055.3	144
1061.08	164
1066.85	166
1072.61	172
1078.37	178
1084.12	164
1089.87	154
1095.61	168
1101.34	170
1107.07	148
1112.8	134
1118.51	122
1124.22	98
1129.93	104
1135.63	118
1141.32	126
1147.01	182
1152.69	348
1158.37	344
1164.04	210
1169.71	196
1175.37	298
1181.02	512
1186.67	436
1192.31	480
1197.95	504
1203.58	448
1209.2	308
1214.82	228
1220.44	206
1226.05	188
1231.65	176
1237.25	172
1242.84	180
1248.42	168
1254	172
1259.58	152
1265.15	166
1270.71	164
1276.27	174
1281.82	174
1287.37	178
1292.91	186
1298.45	188
1303.98	216
1309.5	220
1315.02	250
1320.53	256
1326.04	306
1331.54	292
1337.04	280
1342.53	272
1348.02	254
1353.5	268
1358.98	262
1364.45	272
1369.91	280
1375.37	282
1380.82	262
1386.27	256
1391.71	238
1397.15	232
1402.58	218
1408.01	232
1413.43	236
1418.85	224
1424.26	222
1429.66	230
1435.06	264
1440.46	272
1445.85	320
1451.23	328
1456.61	264
1461.98	194
1467.35	192
1472.71	186
1478.07	172
1483.42	186
1488.77	184
1494.11	184
1499.45	178
1504.78	148
1510.11	162
1515.43	160
1520.74	156
1526.05	164
1531.36	164
1536.66	152
1541.95	154
1547.24	168
1552.52	162
1557.8	158
1563.08	156
1568.35	170
1573.61	204
1578.87	260
1584.12	408
1589.37	248
1594.61	274
1599.85	596
1605.08	536
1610.31	254
1615.53	178
1620.75	172
1625.96	166
1631.17	154
1636.37	148
1641.57	148
1646.76	158
1651.95	140
1657.13	140
1662.31	132
1667.48	142
1672.65	130
1677.81	118
1682.97	126
1688.12	130
1693.27	122
1698.41	116
1702.26	114

File: ps-ppo-6jan25-1,0000-map3_Y02_X08.txt
204.377	840
211.048	876
217.712	876
224.369	892
231.019	726
237.661	564
244.297	384
250.924	310
257.546	274
264.16	246
270.766	254
277.365	234
283.958	208
290.543	176
297.121	176
303.693	168
310.256	166
316.813	172
323.362	164
329.905	178
336.441	160
342.969	156
349.491	152
356.006	144
362.513	160
369.014	146
375.508	158
381.994	164
388.473	188
394.947	192
401.412	208
407.871	226
414.323	200
420.768	170
427.206	148
433.637	130
440.062	140
446.479	138
452.89	118
459.293	108
465.691	96
472.081	112
478.463	106
484.84	104
491.21	94
497.573	96
503.929	100
510.279	106
516.621	98
522.957	124
529.287	116
535.609	140
541.925	146
548.234	126
554.536	142
560.832	130
567.12	130
573.403	134
579.679	120
585.948	112
592.211	104
598.466	104
604.715	136
610.958	156
617.194	318
623.424	480
629.647	136
635.864	110
642.074	88
648.276	78
654.473	78
660.664	78
666.847	82
673.025	80
679.195	74
685.36	82
691.517	74
697.669	88
703.814	92
709.953	92
716.085	88
722.21	128
728.33	132
734.443	132
740.549	172
746.65	188
752.743	206
758.831	222
764.912	224
770.986	202
777.055	204
783.117	236
789.173	310
795.222	336
801.265	280
807.302	194
813.333	152
819.357	128
825.376	114
831.387	106
837.392	152
843.392	144
849.386	138
855.372	128
861.353	120
867.328	136
873.296	118
879.258	108
885.214	110
891.164	108
897.108	108
903.046	134
908.977	144
914.903	110
920.822	108
926.735	96
932.643	88
938.543	100
944.439	88
950.328	104
956.21	102
962.088	122
967.958	118
973.824	138
979.682	202
985.534	268
991.382	786
997.222	1192
1003.06	2854
1008.89	450
1014.71	182
1020.53	222
1026.34	490
1032.14	886
1037.94	428
1043.73	210
1049.52	154
1055.3	148
1061.08	164
1066.85	168
1072.61	180
1078.37	166
1084.12	160
1089.87	166
1095.61	160
1101.34	166
1107.07	140
1112.8	116
1118.51	110
1124.22	94
1129.93	106
1135.63	108
1141.32	124
1147.01	176
1152.69	354
1158.37	350
1164.04	218
1169.71	212
1175.37	290
1181.02	522
1186.67	458
1192.31	468
1197.95	494
1203.58	440
1209.2	320
1214.82	232
1220.44	202
1226.05	200
1231.65	176
1237.25	170
1242.84	162
1248.42	168
1254	170
1259.58	164
1265.15	166
1270.71	158
1276.27	174
1281.82	176
1287.37	188
1292.91	192
1298.45	210
1303.98	210
1309.5	232
1315.02	226
1320.53	298
1326.04	288
1331.54	310
1337.04	286
1342.53	278
1348.02	256
1353.5	266
1358.98	270
1364.45	276
1369.91	278
1375.37	276
1380.82	280
1386.27	250
1391.71	250
1397.15	234
1402.58	242
1408.01	244
1413.43	230
1418.85	214
1424.26	216
1429.66	224
1435.06	252
1440.46	284
1445.85	338
1451.23	322
1456.61	270
1461.98	208
1467.35	198
1472.71	194
1478.07	182
1483.42	184
1488.77	184
1494.11	186
1499.45	178
1504.78	162
1510.11	168
1515.43	156
1520.74	178
1526.05	166
1531.36	158
1536.66	154
1541.95	162
1547.24	168
1552.52	168
1557.8	158
1563.08	166
1568.35	188
1573.61	198
1578.87	260
1584.12	406
1589.37	254
1594.61	314
1599.85	596
1605.08	550
1610.31	284
1615.53	198
1620.75	174
1625.96	154
1631.17	156
1636.37	152
1641.57	160
1646.76	148
1651.95	148
1657.13	130
1662.31	138
1667.48	124
1672.65	136
1677.81	124
1682.97	136
1688.12	128
1693.27	128
1698.41	124
1702.26	122

File: ps-ppo-6jan25-1,0000-map3_Y02_X09.txt
204.377	808
211.048	876
217.712	918
224.369	888
231.019	738
237.661	520
244.297	392
250.924	320
257.546	280
264.16	262
270.766	244
277.365	246
283.958	198
290.543	182
297.121	168
303.693	172
310.256	168
316.813	180
323.362	166
329.905	180
336.441	160
342.969	162
349.491	152
356.006	132
362.513	142
369.014	144
375.508	164
381.994	168
388.473	184
394.947	182
401.412	190
407.871	230
414.323	194
420.768	172
427.206	130
433.637	146
440.062	132
446.479	134
452.89	118
459.293	104
465.691	106
472.081	100
478.463	96
484.84	96
491.21	102
497.573	102
503.929	116
510.279	110
516.621	112
522.957	108
529.287	122
535.609	146
541.925	128
548.234	138
554.536	144
560.832	136
567.12	148
573.403	148
579.679	110
585.948	108
592.211	106
598.466	116
604.715	136
610.958	148
617.194	314
623.424	466
629.647	150
635.864	110
642.074	90
648.276	80
654.473	72
660.664	84
666.847	74
673.025	76
679.195	76
685.36	78
691.517	82
697.669	86
703.814	100
709.953	94
716.085	90
722.21	130
728.33	130
734.443	134
740.549	174
746.65	196
752.743	204
758.831	208
764.912	214
770.986	198
777.055	196
783.117	234
789.173	316
795.222	346
801.265	282
807.302	190
813.333	166
819.357	130
825.376	108
831.387	122
837.392	138
843.392	158
849.386	136
855.372	126
861.353	128
867.328	116
873.296	122
879.258	108
885.214	116
891.164	114
897.108	124
903.046	144
908.977	144
914.903	118
920.822	102
926.735	102
932.643	96
938.543	96
944.439	100
950.328	106
956.21	102
962.088	124
967.958	122
973.824	138
979.682	176
985.534	268
991.382	782
997.222	1240
1003.06	2880
1008.89	438
1014.71	194
1020.53	222
1026.34	496
1032.14	904
1037.94	412
1043.73	210
1049.52	160
1055.3	170
1061.08	152
1066.85	178
1072.61	172
1078.37	168
1084.12	160
1089.87	154
1095.61	180
1101.34	174
1107.07	144
1112.8	136
1118.51	122
1124.22	106
1129.93	114
1135.63	110
1141.32	136
1147.01	170
1152.69	368
1158.37	352
1164.04	228
1169.71	218
1175.37	304
1181.02	502
1186.67	446
1192.31	492
1197.95	490
1203.58	442
1209.2	318
1214.82	224
1220.44	202
1226.05	200
1231.65	174
1237.25	166
1242.84	168
1248.42	152
1254	172
1259.58	170
1265.15	184
1270.71	174
1276.27	178
1281.82	176
1287.37	198
1292.91	198
1298.45	216
1303.98	216
1309.5	236
1315.02	246
1320.53	276
1326.04	302
1331.54	300
1337.04	286
1342.53	292
1348.02	256
1353.5	262
1358.98	264
1364.45	274
1369.91	280
1375.37	286
1380.82	258
1386.27	244
1391.71	244
1397.15	236
1402.58	230
1408.01	238
1413.43	232
1418.85	230
1424.26	224
1429.66	228
1435.06	244
1440.46	288
1445.85	308
1451.23	326
1456.61	282
1461.98	222
1467.35	190
1472.71	192
1478.07	190
1483.42	192
1488.77	176
1494.11	178
1499.45	174
1504.78	172
1510.11	164
1515.43	168
1520.74	176
1526.05	168
1531.36	156
1536.66	174
1541.95	178
1547.24	158
1552.52	170
1557.8	174
1563.08	168
1568.35	176
1573.61	202
1578.87	270
1584.12	420
1589.37	250
1594.61	308
1599.85	598
1605.08	546
1610.31	278
1615.53	206
1620.75	186
1625.96	164
1631.17	142
1636.37	148
1641.57	160
1646.76	156
1651.95	148
1657.13	148
1662.31	126
1667.48	140
1672.65	146
1677.81	128
1682.97	126
1688.12	116
1693.27	110
1698.41	116
1702.26	126

File: ps-ppo-6jan25-1,0000-map3_Y03_X00.txt
204.377	834
211.048	888
217.712	932
224.369	854
231.019	712
237.661	534
244.297	378
250.924	302
257.546	272
264.16	266
270.766	236
277.365	226
283.958	218
290.543	202
297.121	178
303.693	176
310.256	176
316.813	158
323.362	160
329.905	166
336.441	154
342.969	154
349.491	160
356.006	148
362.513	150
369.014	146
375.508	158
381.994	164
388.473	172
394.947	184
401.412	210
407.871	228
414.323	182
420.768	166
427.206	144
433.637	142
440.062	132
446.479	128
452.89	116
459.293	120
465.691	112
472.081	98
478.463	92
484.84	102
491.21	100
497.573	102
503.929	106
510.279	90
516.621	106
522.957	108
529.287	124
535.609	136
541.925	146
548.234	140
554.536	128
560.832	140
567.12	136
573.403	130
579.679	116
585.948	114
592.211	104
598.466	118
604.715	130
610.958	136
617.194	312
623.424	478
629.647	142
635.864	100
642.074	94
648.276	78
654.473	76
660.664	74
666.847	78
673.025	78
679.195	74
685.36	76
691.517	80
697.669	92
703.814	94
709.953	94
716.085	92
722.21	114
728.33	126
734.443	138
740.549	186
746.65	188
752.743	206
758.831	236
764.912	218
770.986	198
777.055	184
783.117	244
789.173	312
795.222	330
801.265	264
807.302	182
813.333	160
819.357	122
825.376	108
831.387	114
837.392	138
843.392	158
849.386	130
855.372	122
861.353	126
867.328	124
873.296	116
879.258	118
885.214	106
891.164	108
897.108	120
903.046	138
908.977	138
914.903	112
920.822	104
926.735	94
932.643	94
938.543	96
944.439	102
950.328	96
956.21	96
962.088	118
967.958	122
973.824	134
979.682	178
985.534	270
991.382	738
997.222	1192
1003.06	2876
1008.89	432
1014.71	194
1020.53	212
1026.34	466
1032.14	878
1037.94	406
1043.73	202
1049.52	154
1055.3	156
1061.08	160
1066.85	158
1072.61	168
1078.37	174
1084.12	170
1089.87	160
1095.61	164
1101.34	166
1107.07	144
1112.8	114
1118.51	114
1124.22	116
1129.93	98
1135.63	114
1141.32	130
1147.01	152
1152.69	354
1158.37	320
1164.04	212
1169.71	196
1175.37	274
1181.02	532
1186.67	440
1192.31	452
1197.95	492
1203.58	450
1209.2	318
1214.82	230
1220.44	194
1226.05	198
1231.65	180
1237.25	176
1242.84	162
1248.42	162
1254	174
1259.58	166
1265.15	166
1270.71	174
1276.27	168
1281.82	170
1287.37	166
1292.91	192
1298.45	192
1303.98	210
1309.5	228
1315.02	224
1320.53	258
1326.04	280
1331.54	290
1337.04	284
1342.53	260
1348.02	248
1353.5	258
1358.98	248
1364.45	274
1369.91	260
1375.37	260
1380.82	262
1386.27	234
1391.71	222
1397.15	218
1402.58	214
1408.01	216
1413.43	222
1418.85	212
1424.26	206
1429.66	210
1435.06	232
1440.46	278
1445.85	310
1451.23	296
1456.61	270
1461.98	198
1467.35	200
1472.71	178
1478.07	186
1483.42	164
1488.77	168
1494.11	188
1499.45	160
1504.78	160
1510.11	150
1515.43	154
1520.74	162
1526.05	158
1531.36	150
1536.66	148
1541.95	164
1547.24	160
1552.52	154
1557.8	158
1563.08	156
1568.35	172
1573.61	198
1578.87	252
1584.12	392
1589.37	236
1594.61	290
1599.85	610
1605.08	532
1610.31	282
1615.53	194
1620.75	162
1625.96	160
1631.17	160
1636.37	144
1641.57	144
1646.76	138
1651.95	138
1657.13	132
1662.31	124
1667.48	134
1672.65	118
1677.81	128
1682.97	116
1688.12	112
1693.27	124
1698.41	114
1702.26	110