Folder: NRC_SU25_Spectral_Classification/Jesse_Dataset_v2/Pure Raman/Polystyrene/785nm (part 6)

File: ps-ppo-6jan25-1,0000-map3_Y09_X00.txt
204.377	816
211.048	878
217.712	890
224.369	880
231.019	710
237.661	544
244.297	396
250.924	312
257.546	266
264.16	266
270.766	248
277.365	236
283.958	222
290.543	186
297.121	168
303.693	158
310.256	152
316.813	166
323.362	176
329.905	170
336.441	174
342.969	156
349.491	138
356.006	158
362.513	150
369.014	144
375.508	166
381.994	178
388.473	184
394.947	192
401.412	214
407.871	222
414.323	194
420.768	166
427.206	152
433.637	152
440.062	130
446.479	128
452.89	114
459.293	110
465.691	100
472.081	106
478.463	108
484.84	98
491.21	96
497.573	102
503.929	104
510.279	108
516.621	114
522.957	116
529.287	130
535.609	146
541.925	150
548.234	148
554.536	146
560.832	142
567.12	128
573.403	138
579.679	118
585.948	120
592.211	108
598.466	128
604.715	138
610.958	136
617.194	294
623.424	470
629.647	142
635.864	102
642.074	90
648.276	82
654.473	78
660.664	74
666.847	76
673.025	74
679.195	72
685.36	74
691.517	74
697.669	82
703.814	104
709.953	104
716.085	94
722.21	128
728.33	132
734.443	140
740.549	190
746.65	194
752.743	212
758.831	218
764.912	206
770.986	190
777.055	204
783.117	234
789.173	326
795.222	328
801.265	268
807.302	194
813.333	162
819.357	118
825.376	116
831.387	110
837.392	140
843.392	152
849.386	126
855.372	122
861.353	122
867.328	112
873.296	122
879.258	122
885.214	106
891.164	124
897.108	108
903.046	126
908.977	150
914.903	124
920.822	106
926.735	102
932.643	94
938.543	104
944.439	108
950.328	108
956.21	106
962.088	110
967.958	128
973.824	132
979.682	184
985.534	264
991.382	764
997.222	1270
1003.06	2882
1008.89	446
1014.71	192
1020.53	234
1026.34	494
1032.14	902
1037.94	408
1043.73	210
1049.52	164
1055.3	156
1061.08	172
1066.85	172
1072.61	176
1078.37	172
1084.12	162
1089.87	168
1095.61	168
1101.34	164
1107.07	130
1112.8	128
1118.51	122
1124.22	108
1129.93	98
1135.63	110
1141.32	130
1147.01	160
1152.69	342
1158.37	336
1164.04	200
1169.71	216
1175.37	300
1181.02	540
1186.67	436
1192.31	478
1197.95	514
1203.58	464
1209.2	314
1214.82	232
1220.44	184
1226.05	196
1231.65	186
1237.25	168
1242.84	174
1248.42	170
1254	148
1259.58	160
1265.15	170
1270.71	164
1276.27	164
1281.82	170
1287.37	178
1292.91	192
1298.45	204
1303.98	212
1309.5	212
1315.02	252
1320.53	264
1326.04	302
1331.54	286
1337.04	272
1342.53	254
1348.02	268
1353.5	240
1358.98	268
1364.45	284
1369.91	274
1375.37	280
1380.82	270
1386.27	242
1391.71	214
1397.15	220
1402.58	228
1408.01	212
1413.43	212
1418.85	222
1424.26	212
1429.66	218
1435.06	236
1440.46	286
1445.85	334
1451.23	338
1456.61	272
1461.98	202
1467.35	194
1472.71	176
1478.07	172
1483.42	176
1488.77	178
1494.11	174
1499.45	176
1504.78	168
1510.11	160
1515.43	152
1520.74	162
1526.05	160
1531.36	162
1536.66	158
1541.95	166
1547.24	150
1552.52	164
1557.8	154
1563.08	166
1568.35	166
1573.61	186
1578.87	282
1584.12	394
1589.37	246
1594.61	316
1599.85	610
1605.08	554
1610.31	268
1615.53	198
1620.75	178
1625.96	154
1631.17	154
1636.37	148
1641.57	150
1646.76	148
1651.95	142
1657.13	134
1662.31	128
1667.48	132
1672.65	132
1677.81	136
1682.97	124
1688.12	114
1693.27	126
1698.41	118
1702.26	108

File: ps-ppo-6jan25-1,0000-map3_Y09_X01.txt
204.377	852
211.048	894
217.712	912
224.369	876
231.019	712
237.661	552
244.297	366
250.924	326
257.546	290
264.16	246
270.766	260
277.365	234
283.958	208
290.543	204
297.121	172
303.693	178
310.256	184
316.813	172
323.362	178
329.905	168
336.441	168
342.969	170
349.491	148
356.006	152
362.513	158
369.014	156
375.508	176
381.994	180
388.473	184
394.947	194
401.412	220
407.871	264
414.323	204
420.768	184
427.206	148
433.637	154
440.062	146
446.479	126
452.89	110
459.293	114
465.691	102
472.081	110
478.463	100
484.84	108
491.21	96
497.573	100
503.929	116
510.279	100
516.621	110
522.957	120
529.287	124
535.609	144
541.925	150
548.234	144
554.536	130
560.832	140
567.12	138
573.403	150
579.679	134
585.948	108
592.211	110
598.466	112
604.715	126
610.958	142
617.194	324
623.424	462
629.647	142
635.864	112
642.074	92
648.276	86
654.473	80
660.664	78
666.847	84
673.025	80
679.195	72
685.36	80
691.517	76
697.669	86
703.814	116
709.953	98
716.085	96
722.21	132
728.33	132
734.443	138
740.549	184
746.65	188
752.743	210
758.831	242
764.912	226
770.986	204
777.055	206
783.117	238
789.173	316
795.222	326
801.265	280
807.302	188
813.333	174
819.357	130
825.376	108
831.387	118
837.392	134
843.392	156
849.386	152
855.372	126
861.353	120
867.328	134
873.296	126
879.258	122
885.214	116
891.164	112
897.108	114
903.046	142
908.977	146
914.903	114
920.822	98
926.735	100
932.643	100
938.543	102
944.439	96
950.328	100
956.21	108
962.088	118
967.958	130
973.824	136
979.682	186
985.534	272
991.382	762
997.222	1230
1003.06	2852
1008.89	446
1014.71	184
1020.53	232
1026.34	500
1032.14	870
1037.94	412
1043.73	198
1049.52	156
1055.3	138
1061.08	154
1066.85	176
1072.61	178
1078.37	162
1084.12	174
1089.87	160
1095.61	174
1101.34	170
1107.07	156
1112.8	124
1118.51	114
1124.22	110
1129.93	108
1135.63	120
1141.32	120
1147.01	172
1152.69	366
1158.37	344
1164.04	224
1169.71	214
1175.37	300
1181.02	534
1186.67	426
1192.31	488
1197.95	490
1203.58	420
1209.2	308
1214.82	230
1220.44	206
1226.05	190
1231.65	178
1237.25	164
1242.84	174
1248.42	182
1254	166
1259.58	160
1265.15	154
1270.71	172
1276.27	166
1281.82	168
1287.37	172
1292.91	188
1298.45	202
1303.98	222
1309.5	220
1315.02	246
1320.53	256
1326.04	288
1331.54	296
1337.04	286
1342.53	268
1348.02	248
1353.5	268
1358.98	246
1364.45	280
1369.91	278
1375.37	280
1380.82	274
1386.27	216
1391.71	246
1397.15	218
1402.58	220
1408.01	220
1413.43	224
1418.85	226
1424.26	206
1429.66	224
1435.06	238
1440.46	270
1445.85	326
1451.23	332
1456.61	254
1461.98	208
1467.35	202
1472.71	180
1478.07	182
1483.42	178
1488.77	180
1494.11	180
1499.45	172
1504.78	168
1510.11	162
1515.43	176
1520.74	154
1526.05	164
1531.36	162
1536.66	154
1541.95	158
1547.24	162
1552.52	154
1557.8	162
1563.08	170
1568.35	160
1573.61	196
1578.87	276
1584.12	406
1589.37	244
1594.61	292
1599.85	646
1605.08	544
1610.31	266
1615.53	186
1620.75	170
1625.96	164
1631.17	152
1636.37	148
1641.57	148
1646.76	152
1651.95	128
1657.13	122
1662.31	142
1667.48	124
1672.65	138
1677.81	126
1682.97	118
1688.12	118
1693.27	120
1698.41	116
1702.26	120

File: ps-ppo-6jan25-1,0000-map3_Y09_X02.txt
204.377	800
211.048	876
217.712	924
224.369	874
231.019	712
237.661	518
244.297	388
250.924	310
257.546	286
264.16	266
270.766	244
277.365	242
283.958	206
290.543	180
297.121	176
303.693	164
310.256	160
316.813	174
323.362	172
329.905	160
336.441	148
342.969	144
349.491	158
356.006	144
362.513	154
369.014	154
375.508	168
381.994	178
388.473	168
394.947	194
401.412	216
407.871	234
414.323	192
420.768	156
427.206	152
433.637	138
440.062	138
446.479	128
452.89	112
459.293	114
465.691	104
472.081	110
478.463	100
484.84	102
491.21	102
497.573	106
503.929	110
510.279	100
516.621	108
522.957	106
529.287	122
535.609	138
541.925	144
548.234	132
554.536	144
560.832	138
567.12	130
573.403	138
579.679	116
585.948	118
592.211	114
598.466	106
604.715	130
610.958	142
617.194	306
623.424	428
629.647	154
635.864	108
642.074	90
648.276	80
654.473	76
660.664	78
666.847	76
673.025	76
679.195	68
685.36	70
691.517	74
697.669	78
703.814	100
709.953	88
716.085	98
722.21	132
728.33	124
734.443	134
740.549	180
746.65	178
752.743	196
758.831	226
764.912	228
770.986	204
777.055	196
783.117	248
789.173	308
795.222	360
801.265	276
807.302	200
813.333	152
819.357	130
825.376	106
831.387	128
837.392	158
843.392	154
849.386	126
855.372	116
861.353	120
867.328	132
873.296	114
879.258	114
885.214	114
891.164	108
897.108	122
903.046	140
908.977	144
914.903	114
920.822	98
926.735	88
932.643	102
938.543	98
944.439	104
950.328	104
956.21	100
962.088	120
967.958	128
973.824	140
979.682	178
985.534	264
991.382	784
997.222	1236
1003.06	2826
1008.89	436
1014.71	184
1020.53	226
1026.34	506
1032.14	900
1037.94	410
1043.73	192
1049.52	158
1055.3	150
1061.08	158
1066.85	178
1072.61	174
1078.37	172
1084.12	174
1089.87	162
1095.61	154
1101.34	174
1107.07	138
1112.8	136
1118.51	126
1124.22	110
1129.93	100
1135.63	102
1141.32	122
1147.01	164
1152.69	370
1158.37	338
1164.04	214
1169.71	214
1175.37	304
1181.02	540
1186.67	424
1192.31	482
1197.95	492
1203.58	450
1209.2	328
1214.82	236
1220.44	194
1226.05	188
1231.65	170
1237.25	172
1242.84	162
1248.42	166
1254	174
1259.58	176
1265.15	170
1270.71	182
1276.27	164
1281.82	176
1287.37	180
1292.91	190
1298.45	204
1303.98	220
1309.5	226
1315.02	244
1320.53	266
1326.04	272
1331.54	304
1337.04	290
1342.53	242
1348.02	264
1353.5	268
1358.98	262
1364.45	284
1369.91	282
1375.37	260
1380.82	250
1386.27	248
1391.71	216
1397.15	236
1402.58	234
1408.01	210
1413.43	210
1418.85	228
1424.26	206
1429.66	230
1435.06	256
1440.46	280
1445.85	314
1451.23	312
1456.61	278
1461.98	208
1467.35	194
1472.71	166
1478.07	190
1483.42	196
1488.77	176
1494.11	182
1499.45	190
1504.78	172
1510.11	160
1515.43	162
1520.74	154
1526.05	170
1531.36	152
1536.66	158
1541.95	158
1547.24	166
1552.52	174
1557.8	154
1563.08	168
1568.35	174
1573.61	188
1578.87	278
1584.12	418
1589.37	264
1594.61	286
1599.85	600
1605.08	574
1610.31	282
1615.53	204
1620.75	170
1625.96	152
1631.17	144
1636.37	144
1641.57	160
1646.76	154
1651.95	150
1657.13	128
1662.31	136
1667.48	132
1672.65	120
1677.81	134
1682.97	128
1688.12	138
1693.27	128
1698.41	118
1702.26	114

File: ps-ppo-6jan25-1,0000-map3_Y09_X03.txt
204.377	820
211.048	892
217.712	944
224.369	886
231.019	736
237.661	522
244.297	390
250.924	292
257.546	274
264.16	258
270.766	258
277.365	232
283.958	204
290.543	176
297.121	176
303.693	174
310.256	164
316.813	158
323.362	164
329.905	166
336.441	158
342.969	152
349.491	146
356.006	150
362.513	152
369.014	158
375.508	158
381.994	176
388.473	190
394.947	182
401.412	218
407.871	198
414.323	178
420.768	172
427.206	140
433.637	138
440.062	140
446.479	118
452.89	124
459.293	108
465.691	118
472.081	106
478.463	92
484.84	90
491.21	104
497.573	102
503.929	106
510.279	108
516.621	114
522.957	112
529.287	126
535.609	138
541.925	136
548.234	128
554.536	146
560.832	140
567.12	130
573.403	144
579.679	124
585.948	100
592.211	106
598.466	106
604.715	120
610.958	140
617.194	310
623.424	460
629.647	148
635.864	114
642.074	74
648.276	86
654.473	78
660.664	76
666.847	72
673.025	80
679.195	74
685.36	78
691.517	76
697.669	88
703.814	98
709.953	96
716.085	84
722.21	142
728.33	126
734.443	132
740.549	182
746.65	188
752.743	204
758.831	246
764.912	206
770.986	200
777.055	206
783.117	240
789.173	312
795.222	356
801.265	274
807.302	194
813.333	152
819.357	122
825.376	106
831.387	122
837.392	142
843.392	150
849.386	132
855.372	120
861.353	118
867.328	134
873.296	114
879.258	116
885.214	122
891.164	120
897.108	108
903.046	146
908.977	142
914.903	124
920.822	98
926.735	96
932.643	98
938.543	94
944.439	94
950.328	98
956.21	102
962.088	116
967.958	116
973.824	142
979.682	178
985.534	274
991.382	770
997.222	1212
1003.06	2874
1008.89	448
1014.71	192
1020.53	222
1026.34	500
1032.14	874
1037.94	390
1043.73	204
1049.52	156
1055.3	156
1061.08	160
1066.85	178
1072.61	178
1078.37	176
1084.12	154
1089.87	160
1095.61	160
1101.34	158
1107.07	148
1112.8	134
1118.51	118
1124.22	108
1129.93	108
1135.63	112
1141.32	134
1147.01	174
1152.69	364
1158.37	354
1164.04	222
1169.71	208
1175.37	308
1181.02	534
1186.67	432
1192.31	488
1197.95	520
1203.58	434
1209.2	304
1214.82	228
1220.44	214
1226.05	212
1231.65	184
1237.25	164
1242.84	168
1248.42	166
1254	158
1259.58	162
1265.15	170
1270.71	166
1276.27	170
1281.82	180
1287.37	164
1292.91	178
1298.45	196
1303.98	220
1309.5	218
1315.02	234
1320.53	276
1326.04	290
1331.54	298
1337.04	292
1342.53	254
1348.02	258
1353.5	264
1358.98	272
1364.45	266
1369.91	280
1375.37	270
1380.82	256
1386.27	244
1391.71	242
1397.15	222
1402.58	244
1408.01	232
1413.43	232
1418.85	212
1424.26	218
1429.66	218
1435.06	258
1440.46	276
1445.85	302
1451.23	320
1456.61	254
1461.98	212
1467.35	186
1472.71	196
1478.07	188
1483.42	172
1488.77	202
1494.11	188
1499.45	162
1504.78	164
1510.11	166
1515.43	174
1520.74	158
1526.05	160
1531.36	156
1536.66	160
1541.95	164
1547.24	148
1552.52	158
1557.8	168
1563.08	156
1568.35	180
1573.61	198
1578.87	272
1584.12	394
1589.37	250
1594.61	290
1599.85	624
1605.08	550
1610.31	276
1615.53	200
1620.75	158
1625.96	168
1631.17	150
1636.37	142
1641.57	138
1646.76	144
1651.95	132
1657.13	146
1662.31	130
1667.48	130
1672.65	136
1677.81	120
1682.97	126
1688.12	132
1693.27	116
1698.41	112
1702.26	110

File: ps-ppo-6jan25-1,0000-map3_Y09_X04.txt
204.377	840
211.048	888
217.712	920
224.369	902
231.019	712
237.661	534
244.297	350
250.924	332
257.546	266
264.16	256
270.766	248
277.365	224
283.958	218
290.543	194
297.121	160
303.693	162
310.256	168
316.813	174
323.362	172
329.905	164
336.441	148
342.969	162
349.491	154
356.006	148
362.513	150
369.014	152
375.508	152
381.994	178
388.473	174
394.947	172
401.412	210
407.871	226
414.323	188
420.768	170
427.206	154
433.637	144
440.062	144
446.479	126
452.89	118
459.293	110
465.691	108
472.081	114
478.463	102
484.84	116
491.21	96
497.573	102
503.929	116
510.279	108
516.621	100
522.957	108
529.287	116
535.609	134
541.925	160
548.234	144
554.536	126
560.832	128
567.12	128
573.403	148
579.679	120
585.948	100
592.211	112
598.466	110
604.715	132
610.958	138
617.194	322
623.424	454
629.647	148
635.864	108
642.074	88
648.276	80
654.473	80
660.664	68
666.847	80
673.025	74
679.195	76
685.36	76
691.517	82
697.669	88
703.814	94
709.953	90
716.085	98
722.21	132
728.33	122
734.443	130
740.549	180
746.65	172
752.743	212
758.831	240
764.912	228
770.986	196
777.055	194
783.117	242
789.173	292
795.222	332
801.265	284
807.302	208
813.333	150
819.357	126
825.376	102
831.387	118
837.392	152
843.392	158
849.386	128
855.372	128
861.353	132
867.328	112
873.296	114
879.258	116
885.214	116
891.164	116
897.108	110
903.046	148
908.977	142
914.903	102
920.822	98
926.735	96
932.643	104
938.543	108
944.439	90
950.328	108
956.21	104
962.088	122
967.958	136
973.824	146
979.682	180
985.534	274
991.382	788
997.222	1266
1003.06	2850
1008.89	440
1014.71	196
1020.53	216
1026.34	528
1032.14	884
1037.94	410
1043.73	204
1049.52	168
1055.3	158
1061.08	158
1066.85	172
1072.61	178
1078.37	172
1084.12	148
1089.87	164
1095.61	170
1101.34	162
1107.07	142
1112.8	134
1118.51	114
1124.22	110
1129.93	106
1135.63	110
1141.32	118
1147.01	176
1152.69	346
1158.37	344
1164.04	228
1169.71	224
1175.37	290
1181.02	514
1186.67	434
1192.31	470
1197.95	490
1203.58	456
1209.2	306
1214.82	226
1220.44	200
1226.05	218
1231.65	164
1237.25	170
1242.84	160
1248.42	172
1254	166
1259.58	172
1265.15	178
1270.71	166
1276.27	172
1281.82	166
1287.37	176
1292.91	192
1298.45	210
1303.98	222
1309.5	216
1315.02	250
1320.53	280
1326.04	288
1331.54	286
1337.04	288
1342.53	268
1348.02	266
1353.5	266
1358.98	274
1364.45	292
1369.91	268
1375.37	288
1380.82	270
1386.27	246
1391.71	226
1397.15	236
1402.58	218
1408.01	228
1413.43	238
1418.85	212
1424.26	212
1429.66	212
1435.06	246
1440.46	284
1445.85	304
1451.23	328
1456.61	264
1461.98	218
1467.35	182
1472.71	184
1478.07	188
1483.42	180
1488.77	174
1494.11	184
1499.45	168
1504.78	154
1510.11	158
1515.43	164
1520.74	172
1526.05	168
1531.36	172
1536.66	174
1541.95	152
1547.24	160
1552.52	150
1557.8	160
1563.08	164
1568.35	166
1573.61	196
1578.87	284
1584.12	410
1589.37	266
1594.61	314
1599.85	596
1605.08	564
1610.31	272
1615.53	192
1620.75	170
1625.96	158
1631.17	148
1636.37	158
1641.57	150
1646.76	152
1651.95	150
1657.13	138
1662.31	136
1667.48	130
1672.65	128
1677.81	126
1682.97	130
1688.12	122
1693.27	126
1698.41	114
1702.26	118

File: ps-ppo-6jan25-1,0000-map3_Y09_X05.txt
204.377	816
211.048	896
217.712	910
224.369	872
231.019	718
237.661	538
244.297	388
250.924	302
257.546	294
264.16	272
270.766	244
277.365	230
283.958	220
290.543	186
297.121	170
303.693	172
310.256	166
316.813	184
323.362	172
329.905	172
336.441	164
342.969	166
349.491	156
356.006	152
362.513	150
369.014	160
375.508	170
381.994	182
388.473	198
394.947	210
401.412	220
407.871	230
414.323	194
420.768	162
427.206	152
433.637	146
440.062	126
446.479	138
452.89	114
459.293	104
465.691	104
472.081	108
478.463	110
484.84	96
491.21	96
497.573	102
503.929	122
510.279	114
516.621	104
522.957	124
529.287	130
535.609	134
541.925	146
548.234	144
554.536	146
560.832	138
567.12	138
573.403	144
579.679	128
585.948	110
592.211	116
598.466	114
604.715	136
610.958	150
617.194	322
623.424	448
629.647	150
635.864	110
642.074	94
648.276	82
654.473	78
660.664	74
666.847	78
673.025	80
679.195	78
685.36	76
691.517	74
697.669	86
703.814	108
709.953	100
716.085	104
722.21	136
728.33	120
734.443	140
740.549	188
746.65	172
752.743	216
758.831	230
764.912	222
770.986	180
777.055	204
783.117	248
789.173	308
795.222	356
801.265	282
807.302	206
813.333	168
819.357	124
825.376	110
831.387	116
837.392	136
843.392	158
849.386	140
855.372	132
861.353	118
867.328	118
873.296	120
879.258	120
885.214	110
891.164	110
897.108	112
903.046	136
908.977	136
914.903	116
920.822	96
926.735	100
932.643	106
938.543	104
944.439	106
950.328	94
956.21	102
962.088	126
967.958	136
973.824	134
979.682	178
985.534	274
991.382	784
997.222	1236
1003.06	2844
1008.89	448
1014.71	186
1020.53	210
1026.34	490
1032.14	886
1037.94	400
1043.73	202
1049.52	162
1055.3	150
1061.08	168
1066.85	170
1072.61	172
1078.37	170
1084.12	170
1089.87	154
1095.61	166
1101.34	162
1107.07	144
1112.8	130
1118.51	124
1124.22	104
1129.93	112
1135.63	120
1141.32	124
1147.01	172
1152.69	340
1158.37	334
1164.04	202
1169.71	222
1175.37	304
1181.02	498
1186.67	438
1192.31	488
1197.95	516
1203.58	442
1209.2	328
1214.82	236
1220.44	212
1226.05	202
1231.65	186
1237.25	162
1242.84	182
1248.42	170
1254	174
1259.58	166
1265.15	176
1270.71	182
1276.27	172
1281.82	178
1287.37	182
1292.91	184
1298.45	216
1303.98	216
1309.5	232
1315.02	262
1320.53	274
1326.04	282
1331.54	296
1337.04	290
1342.53	274
1348.02	268
1353.5	268
1358.98	272
1364.45	270
1369.91	282
1375.37	284
1380.82	266
1386.27	252
1391.71	252
1397.15	244
1402.58	232
1408.01	234
1413.43	218
1418.85	224
1424.26	212
1429.66	234
1435.06	248
1440.46	296
1445.85	328
1451.23	332
1456.61	266
1461.98	218
1467.35	194
1472.71	192
1478.07	184
1483.42	168
1488.77	196
1494.11	188
1499.45	172
1504.78	166
1510.11	162
1515.43	162
1520.74	162
1526.05	164
1531.36	166
1536.66	170
1541.95	176
1547.24	160
1552.52	168
1557.8	162
1563.08	170
1568.35	180
1573.61	202
1578.87	268
1584.12	378
1589.37	258
1594.61	316
1599.85	628
1605.08	562
1610.31	276
1615.53	202
1620.75	180
1625.96	164
1631.17	150
1636.37	158
1641.57	154
1646.76	158
1651.95	146
1657.13	142
1662.31	144
1667.48	142
1672.65	130
1677.81	132
1682.97	130
1688.12	136
1693.27	120
1698.41	124
1702.26	118

File: ps-ppo-6jan25-1,0000-map3_Y09_X06.txt
204.377	858
211.048	900
217.712	924
224.369	894
231.019	712
237.661	528
244.297	396
250.924	314
257.546	280
264.16	250
270.766	248
277.365	254
283.958	212
290.543	190
297.121	182
303.693	156
310.256	166
316.813	166
323.362	170
329.905	168
336.441	176
342.969	164
349.491	156
356.006	140
362.513	156
369.014	160
375.508	158
381.994	178
388.473	178
394.947	192
401.412	204
407.871	226
414.323	206
420.768	172
427.206	152
433.637	152
440.062	142
446.479	124
452.89	116
459.293	118
465.691	118
472.081	104
478.463	102
484.84	100
491.21	104
497.573	106
503.929	102
510.279	102
516.621	100
522.957	118
529.287	116
535.609	138
541.925	154
548.234	142
554.536	134
560.832	130
567.12	134
573.403	142
579.679	120
585.948	114
592.211	110
598.466	112
604.715	134
610.958	148
617.194	336
623.424	446
629.647	138
635.864	104
642.074	90
648.276	88
654.473	80
660.664	78
666.847	78
673.025	74
679.195	76
685.36	74
691.517	84
697.669	94
703.814	100
709.953	102
716.085	100
722.21	140
728.33	136
734.443	136
740.549	178
746.65	174
752.743	208
758.831	240
764.912	218
770.986	216
777.055	196
783.117	246
789.173	328
795.222	344
801.265	294
807.302	188
813.333	150
819.357	116
825.376	112
831.387	120
837.392	146
843.392	160
849.386	142
855.372	106
861.353	126
867.328	126
873.296	112
879.258	118
885.214	120
891.164	116
897.108	116
903.046	140
908.977	132
914.903	122
920.822	100
926.735	96
932.643	90
938.543	94
944.439	104
950.328	92
956.21	98
962.088	118
967.958	132
973.824	130
979.682	190
985.534	274
991.382	790
997.222	1258
1003.06	2888
1008.89	438
1014.71	194
1020.53	232
1026.34	512
1032.14	894
1037.94	402
1043.73	198
1049.52	170
1055.3	160
1061.08	156
1066.85	176
1072.61	172
1078.37	158
1084.12	156
1089.87	166
1095.61	160
1101.34	168
1107.07	136
1112.8	128
1118.51	116
1124.22	110
1129.93	104
1135.63	108
1141.32	136
1147.01	178
1152.69	342
1158.37	346
1164.04	216
1169.71	218
1175.37	296
1181.02	516
1186.67	440
1192.31	488
1197.95	484
1203.58	422
1209.2	320
1214.82	230
1220.44	212
1226.05	200
1231.65	188
1237.25	168
1242.84	176
1248.42	168
1254	170
1259.58	180
1265.15	172
1270.71	172
1276.27	174
1281.82	180
1287.37	174
1292.91	208
1298.45	200
1303.98	216
1309.5	246
1315.02	256
1320.53	276
1326.04	292
1331.54	290
1337.04	296
1342.53	280
1348.02	276
1353.5	280
1358.98	272
1364.45	270
1369.91	288
1375.37	286
1380.82	276
1386.27	258
1391.71	234
1397.15	230
1402.58	238
1408.01	224
1413.43	226
1418.85	236
1424.26	242
1429.66	232
1435.06	260
1440.46	278
1445.85	316
1451.23	312
1456.61	284
1461.98	220
1467.35	208
1472.71	196
1478.07	180
1483.42	184
1488.77	184
1494.11	198
1499.45	168
1504.78	188
1510.11	172
1515.43	166
1520.74	166
1526.05	182
1531.36	170
1536.66	166
1541.95	164
1547.24	154
1552.52	150
1557.8	160
1563.08	166
1568.35	188
1573.61	194
1578.87	276
1584.12	416
1589.37	258
1594.61	320
1599.85	588
1605.08	542
1610.31	260
1615.53	208
1620.75	180
1625.96	156
1631.17	160
1636.37	146
1641.57	148
1646.76	148
1651.95	144
1657.13	140
1662.31	140
1667.48	134
1672.65	118
1677.81	134
1682.97	138
1688.12	132
1693.27	126
1698.41	112
1702.26	110

File: ps-ppo-6jan25-1,0000-map3_Y09_X07.txt
204.377	860
211.048	906
217.712	928
224.369	888
231.019	724
237.661	550
244.297	378
250.924	310
257.546	288
264.16	264
270.766	268
277.365	244
283.958	218
290.543	188
297.121	174
303.693	182
310.256	168
316.813	170
323.362	180
329.905	176
336.441	184
342.969	166
349.491	158
356.006	164
362.513	166
369.014	156
375.508	160
381.994	178
388.473	194
394.947	192
401.412	212
407.871	252
414.323	200
420.768	176
427.206	154
433.637	152
440.062	148
446.479	146
452.89	120
459.293	122
465.691	108
472.081	114
478.463	108
484.84	104
491.21	110
497.573	108
503.929	116
510.279	114
516.621	104
522.957	116
529.287	140
535.609	146
541.925	152
548.234	140
554.536	160
560.832	156
567.12	144
573.403	140
579.679	132
585.948	120
592.211	114
598.466	114
604.715	140
610.958	152
617.194	326
623.424	478
629.647	142
635.864	112
642.074	92
648.276	90
654.473	88
660.664	82
666.847	80
673.025	80
679.195	84
685.36	84
691.517	90
697.669	86
703.814	106
709.953	106
716.085	96
722.21	128
728.33	138
734.443	136
740.549	186
746.65	184
752.743	204
758.831	230
764.912	204
770.986	212
777.055	198
783.117	234
789.173	302
795.222	346
801.265	284
807.302	200
813.333	170
819.357	132
825.376	112
831.387	116
837.392	144
843.392	162
849.386	134
855.372	132
861.353	130
867.328	124
873.296	118
879.258	118
885.214	118
891.164	122
897.108	118
903.046	138
908.977	140
914.903	114
920.822	104
926.735	98
932.643	100
938.543	96
944.439	112
950.328	98
956.21	114
962.088	116
967.958	126
973.824	140
979.682	196
985.534	264
991.382	784
997.222	1254
1003.06	2846
1008.89	442
1014.71	186
1020.53	222
1026.34	494
1032.14	900
1037.94	404
1043.73	206
1049.52	160
1055.3	148
1061.08	168
1066.85	184
1072.61	164
1078.37	166
1084.12	174
1089.87	168
1095.61	166
1101.34	180
1107.07	144
1112.8	128
1118.51	112
1124.22	106
1129.93	108
1135.63	114
1141.32	136
1147.01	182
1152.69	360
1158.37	342
1164.04	218
1169.71	200
1175.37	306
1181.02	528
1186.67	442
1192.31	482
1197.95	504
1203.58	414
1209.2	324
1214.82	240
1220.44	218
1226.05	184
1231.65	164
1237.25	176
1242.84	186
1248.42	164
1254	174
1259.58	174
1265.15	188
1270.71	172
1276.27	172
1281.82	164
1287.37	184
1292.91	210
1298.45	214
1303.98	218
1309.5	236
1315.02	244
1320.53	276
1326.04	310
1331.54	304
1337.04	288
1342.53	272
1348.02	280
1353.5	276
1358.98	274
1364.45	280
1369.91	268
1375.37	296
1380.82	278
1386.27	262
1391.71	252
1397.15	244
1402.58	244
1408.01	242
1413.43	216
1418.85	230
1424.26	222
1429.66	236
1435.06	266
1440.46	298
1445.85	328
1451.23	324
1456.61	270
1461.98	238
1467.35	184
1472.71	200
1478.07	194
1483.42	192
1488.77	184
1494.11	190
1499.45	186
1504.78	174
1510.11	170
1515.43	168
1520.74	172
1526.05	170
1531.36	164
1536.66	170
1541.95	154
1547.24	160
1552.52	160
1557.8	172
1563.08	164
1568.35	178
1573.61	188
1578.87	288
1584.12	404
1589.37	252
1594.61	304
1599.85	632
1605.08	562
1610.31	288
1615.53	214
1620.75	184
1625.96	174
1631.17	156
1636.37	148
1641.57	148
1646.76	162
1651.95	148
1657.13	134
1662.31	130
1667.48	136
1672.65	130
1677.81	124
1682.97	132
1688.12	132
1693.27	134
1698.41	116
1702.26	130