Folder: NRC_SU25_Spectral_Classification/Jesse_Dataset_v2/Pure Raman/Polystyrene/785nm (part 7)

File: ps-ppo-6jan25-1,0000-map3_Y10_X00.txt
204.377	808
211.048	858
217.712	914
224.369	878
231.019	698
237.661	558
244.297	372
250.924	320
257.546	264
264.16	272
270.766	252
277.365	230
283.958	212
290.543	182
297.121	170
303.693	170
310.256	176
316.813	174
323.362	180
329.905	172
336.441	158
342.969	164
349.491	158
356.006	140
362.513	156
369.014	162
375.508	158
381.994	166
388.473	178
394.947	198
401.412	218
407.871	224
414.323	194
420.768	166
427.206	162
433.637	150
440.062	140
446.479	140
452.89	114
459.293	106
465.691	106
472.081	108
478.463	108
484.84	98
491.21	94
497.573	106
503.929	116
510.279	106
516.621	104
522.957	112
529.287	136
535.609	140
541.925	142
548.234	138
554.536	132
560.832	138
567.12	124
573.403	136
579.679	120
585.948	108
592.211	106
598.466	118
604.715	130
610.958	144
617.194	318
623.424	464
629.647	148
635.864	102
642.074	96
648.276	78
654.473	82
660.664	74
666.847	74
673.025	80
679.195	86
685.36	70
691.517	80
697.669	88
703.814	94
709.953	98
716.085	96
722.21	136
728.33	128
734.443	140
740.549	176
746.65	180
752.743	210
758.831	250
764.912	226
770.986	202
777.055	194
783.117	246
789.173	330
795.222	338
801.265	288
807.302	202
813.333	162
819.357	146
825.376	124
831.387	120
837.392	136
843.392	154
849.386	130
855.372	136
861.353	118
867.328	118
873.296	124
879.258	114
885.214	116
891.164	128
897.108	120
903.046	148
908.977	124
914.903	120
920.822	104
926.735	102
932.643	108
938.543	94
944.439	116
950.328	100
956.21	104
962.088	110
967.958	140
973.824	124
979.682	190
985.534	284
991.382	766
997.222	1236
1003.06	2818
1008.89	438
1014.71	186
1020.53	222
1026.34	508
1032.14	888
1037.94	402
1043.73	220
1049.52	168
1055.3	150
1061.08	160
1066.85	168
1072.61	176
1078.37	172
1084.12	174
1089.87	168
1095.61	166
1101.34	168
1107.07	144
1112.8	136
1118.51	110
1124.22	112
1129.93	108
1135.63	114
1141.32	136
1147.01	178
1152.69	366
1158.37	348
1164.04	206
1169.71	212
1175.37	292
1181.02	530
1186.67	436
1192.31	474
1197.95	508
1203.58	446
1209.2	334
1214.82	226
1220.44	202
1226.05	170
1231.65	188
1237.25	176
1242.84	170
1248.42	164
1254	166
1259.58	158
1265.15	162
1270.71	162
1276.27	170
1281.82	168
1287.37	180
1292.91	194
1298.45	210
1303.98	212
1309.5	228
1315.02	248
1320.53	258
1326.04	282
1331.54	316
1337.04	274
1342.53	254
1348.02	254
1353.5	278
1358.98	260
1364.45	266
1369.91	264
1375.37	270
1380.82	274
1386.27	252
1391.71	224
1397.15	240
1402.58	242
1408.01	218
1413.43	228
1418.85	222
1424.26	224
1429.66	224
1435.06	240
1440.46	288
1445.85	334
1451.23	310
1456.61	276
1461.98	190
1467.35	196
1472.71	186
1478.07	170
1483.42	176
1488.77	176
1494.11	192
1499.45	172
1504.78	172
1510.11	162
1515.43	166
1520.74	168
1526.05	158
1531.36	150
1536.66	150
1541.95	154
1547.24	166
1552.52	164
1557.8	146
1563.08	158
1568.35	184
1573.61	182
1578.87	270
1584.12	398
1589.37	270
1594.61	308
1599.85	606
1605.08	528
1610.31	286
1615.53	194
1620.75	170
1625.96	170
1631.17	160
1636.37	150
1641.57	152
1646.76	134
1651.95	148
1657.13	146
1662.31	134
1667.48	130
1672.65	126
1677.81	130
1682.97	122
1688.12	124
1693.27	120
1698.41	118
1702.26	122

File: ps-ppo-6jan25-1,0000-map3_Y10_X02.txt
204.377	856
211.048	888
217.712	898
224.369	882
231.019	724
237.661	538
244.297	364
250.924	310
257.546	280
264.16	272
270.766	254
277.365	224
283.958	212
290.543	202
297.121	182
303.693	156
310.256	158
316.813	168
323.362	172
329.905	172
336.441	176
342.969	166
349.491	144
356.006	152
362.513	144
369.014	148
375.508	160
381.994	166
388.473	178
394.947	178
401.412	202
407.871	230
414.323	180
420.768	164
427.206	162
433.637	142
440.062	142
446.479	132
452.89	108
459.293	108
465.691	106
472.081	106
478.463	96
484.84	104
491.21	106
497.573	110
503.929	116
510.279	96
516.621	108
522.957	110
529.287	114
535.609	132
541.925	144
548.234	138
554.536	124
560.832	136
567.12	134
573.403	144
579.679	122
585.948	116
592.211	110
598.466	112
604.715	130
610.958	144
617.194	312
623.424	454
629.647	150
635.864	114
642.074	84
648.276	82
654.473	76
660.664	84
666.847	74
673.025	74
679.195	70
685.36	74
691.517	76
697.669	90
703.814	98
709.953	92
716.085	92
722.21	138
728.33	124
734.443	130
740.549	184
746.65	182
752.743	218
758.831	226
764.912	228
770.986	186
777.055	196
783.117	236
789.173	306
795.222	346
801.265	286
807.302	198
813.333	162
819.357	128
825.376	106
831.387	108
837.392	142
843.392	156
849.386	140
855.372	130
861.353	118
867.328	118
873.296	122
879.258	124
885.214	106
891.164	122
897.108	120
903.046	134
908.977	148
914.903	120
920.822	102
926.735	94
932.643	88
938.543	108
944.439	94
950.328	100
956.21	106
962.088	122
967.958	118
973.824	140
979.682	176
985.534	280
991.382	758
997.222	1278
1003.06	2842
1008.89	446
1014.71	192
1020.53	234
1026.34	506
1032.14	882
1037.94	418
1043.73	202
1049.52	148
1055.3	140
1061.08	156
1066.85	158
1072.61	170
1078.37	164
1084.12	174
1089.87	160
1095.61	178
1101.34	156
1107.07	144
1112.8	132
1118.51	112
1124.22	114
1129.93	110
1135.63	114
1141.32	134
1147.01	160
1152.69	360
1158.37	348
1164.04	202
1169.71	210
1175.37	300
1181.02	516
1186.67	418
1192.31	494
1197.95	492
1203.58	444
1209.2	314
1214.82	232
1220.44	204
1226.05	190
1231.65	180
1237.25	168
1242.84	172
1248.42	172
1254	166
1259.58	170
1265.15	174
1270.71	162
1276.27	164
1281.82	178
1287.37	186
1292.91	194
1298.45	190
1303.98	222
1309.5	222
1315.02	230
1320.53	272
1326.04	278
1331.54	298
1337.04	292
1342.53	270
1348.02	256
1353.5	264
1358.98	260
1364.45	288
1369.91	256
1375.37	288
1380.82	260
1386.27	240
1391.71	232
1397.15	222
1402.58	236
1408.01	216
1413.43	206
1418.85	218
1424.26	206
1429.66	230
1435.06	236
1440.46	268
1445.85	318
1451.23	328
1456.61	262
1461.98	204
1467.35	190
1472.71	194
1478.07	182
1483.42	172
1488.77	170
1494.11	166
1499.45	176
1504.78	162
1510.11	166
1515.43	164
1520.74	168
1526.05	158
1531.36	148
1536.66	164
1541.95	164
1547.24	160
1552.52	162
1557.8	162
1563.08	160
1568.35	174
1573.61	200
1578.87	270
1584.12	392
1589.37	232
1594.61	326
1599.85	646
1605.08	526
1610.31	266
1615.53	196
1620.75	170
1625.96	164
1631.17	144
1636.37	152
1641.57	152
1646.76	156
1651.95	150
1657.13	140
1662.31	140
1667.48	144
1672.65	124
1677.81	122
1682.97	108
1688.12	128
1693.27	130
1698.41	126
1702.26	122

File: ps-ppo-6jan25-1,0000-map3_Y10_X06.txt
204.377	802
211.048	914
217.712	916
224.369	890
231.019	746
237.661	524
244.297	372
250.924	310
257.546	280
264.16	264
270.766	250
277.365	238
283.958	208
290.543	178
297.121	164
303.693	168
310.256	170
316.813	164
323.362	164
329.905	178
336.441	156
342.969	158
349.491	162
356.006	138
362.513	152
369.014	158
375.508	168
381.994	176
388.473	190
394.947	196
401.412	204
407.871	230
414.323	186
420.768	176
427.206	156
433.637	138
440.062	128
446.479	126
452.89	118
459.293	118
465.691	108
472.081	108
478.463	102
484.84	94
491.21	98
497.573	102
503.929	114
510.279	102
516.621	118
522.957	116
529.287	120
535.609	140
541.925	142
548.234	146
554.536	140
560.832	124
567.12	134
573.403	140
579.679	120
585.948	114
592.211	106
598.466	102
604.715	128
610.958	136
617.194	322
623.424	442
629.647	136
635.864	110
642.074	98
648.276	76
654.473	76
660.664	74
666.847	84
673.025	72
679.195	74
685.36	76
691.517	82
697.669	80
703.814	98
709.953	94
716.085	104
722.21	136
728.33	130
734.443	140
740.549	180
746.65	178
752.743	196
758.831	230
764.912	238
770.986	202
777.055	204
783.117	234
789.173	272
795.222	348
801.265	278
807.302	198
813.333	150
819.357	128
825.376	116
831.387	118
837.392	130
843.392	154
849.386	136
855.372	122
861.353	116
867.328	120
873.296	118
879.258	118
885.214	114
891.164	110
897.108	114
903.046	138
908.977	146
914.903	110
920.822	98
926.735	92
932.643	96
938.543	90
944.439	92
950.328	104
956.21	100
962.088	118
967.958	114
973.824	134
979.682	182
985.534	288
991.382	788
997.222	1234
1003.06	2868
1008.89	446
1014.71	204
1020.53	220
1026.34	492
1032.14	872
1037.94	406
1043.73	218
1049.52	162
1055.3	144
1061.08	164
1066.85	172
1072.61	174
1078.37	170
1084.12	170
1089.87	160
1095.61	162
1101.34	164
1107.07	138
1112.8	144
1118.51	120
1124.22	108
1129.93	98
1135.63	112
1141.32	130
1147.01	180
1152.69	362
1158.37	338
1164.04	206
1169.71	216
1175.37	286
1181.02	540
1186.67	448
1192.31	498
1197.95	516
1203.58	438
1209.2	324
1214.82	220
1220.44	198
1226.05	190
1231.65	182
1237.25	174
1242.84	170
1248.42	170
1254	170
1259.58	166
1265.15	176
1270.71	164
1276.27	172
1281.82	174
1287.37	182
1292.91	198
1298.45	224
1303.98	224
1309.5	230
1315.02	248
1320.53	290
1326.04	304
1331.54	296
1337.04	282
1342.53	268
1348.02	284
1353.5	264
1358.98	262
1364.45	290
1369.91	290
1375.37	280
1380.82	274
1386.27	240
1391.71	238
1397.15	238
1402.58	232
1408.01	234
1413.43	238
1418.85	236
1424.26	216
1429.66	232
1435.06	244
1440.46	282
1445.85	320
1451.23	334
1456.61	282
1461.98	226
1467.35	196
1472.71	194
1478.07	184
1483.42	188
1488.77	182
1494.11	200
1499.45	178
1504.78	180
1510.11	178
1515.43	160
1520.74	162
1526.05	174
1531.36	170
1536.66	148
1541.95	170
1547.24	170
1552.52	166
1557.8	168
1563.08	178
1568.35	164
1573.61	198
1578.87	270
1584.12	398
1589.37	252
1594.61	304
1599.85	606
1605.08	548
1610.31	278
1615.53	202
1620.75	170
1625.96	160
1631.17	162
1636.37	148
1641.57	166
1646.76	154
1651.95	144
1657.13	146
1662.31	134
1667.48	138
1672.65	132
1677.81	130
1682.97	124
1688.12	120
1693.27	124
1698.41	124
1702.26	128

File: ps-ppo-6jan25-1,0000-map3_Y10_X07.txt
204.377	840
211.048	864
217.712	904
224.369	874
231.019	734
237.661	534
244.297	372
250.924	308
257.546	272
264.16	256
270.766	266
277.365	236
283.958	226
290.543	188
297.121	172
303.693	162
310.256	166
316.813	180
323.362	166
329.905	172
336.441	158
342.969	168
349.491	170
356.006	152
362.513	152
369.014	166
375.508	172
381.994	176
388.473	178
394.947	204
401.412	224
407.871	226
414.323	198
420.768	184
427.206	148
433.637	156
440.062	138
446.479	130
452.89	114
459.293	116
465.691	114
472.081	112
478.463	116
484.84	104
491.21	98
497.573	100
503.929	102
510.279	104
516.621	116
522.957	112
529.287	116
535.609	152
541.925	156
548.234	146
554.536	136
560.832	136
567.12	126
573.403	140
579.679	126
585.948	110
592.211	116
598.466	116
604.715	136
610.958	142
617.194	336
623.424	454
629.647	150
635.864	104
642.074	90
648.276	80
654.473	76
660.664	78
666.847	80
673.025	74
679.195	84
685.36	76
691.517	76
697.669	78
703.814	98
709.953	98
716.085	90
722.21	134
728.33	138
734.443	132
740.549	174
746.65	186
752.743	202
758.831	222
764.912	226
770.986	200
777.055	204
783.117	258
789.173	316
795.222	350
801.265	280
807.302	198
813.333	154
819.357	132
825.376	104
831.387	112
837.392	146
843.392	162
849.386	138
855.372	120
861.353	120
867.328	120
873.296	124
879.258	124
885.214	112
891.164	120
897.108	110
903.046	142
908.977	132
914.903	120
920.822	102
926.735	106
932.643	102
938.543	92
944.439	102
950.328	100
956.21	104
962.088	112
967.958	132
973.824	144
979.682	180
985.534	292
991.382	786
997.222	1252
1003.06	2810
1008.89	414
1014.71	182
1020.53	226
1026.34	512
1032.14	902
1037.94	394
1043.73	208
1049.52	160
1055.3	164
1061.08	158
1066.85	168
1072.61	172
1078.37	180
1084.12	154
1089.87	164
1095.61	164
1101.34	172
1107.07	142
1112.8	134
1118.51	128
1124.22	108
1129.93	104
1135.63	112
1141.32	144
1147.01	170
1152.69	370
1158.37	358
1164.04	210
1169.71	210
1175.37	304
1181.02	528
1186.67	456
1192.31	478
1197.95	504
1203.58	440
1209.2	326
1214.82	248
1220.44	208
1226.05	202
1231.65	180
1237.25	178
1242.84	166
1248.42	168
1254	168
1259.58	178
1265.15	146
1270.71	168
1276.27	168
1281.82	168
1287.37	184
1292.91	200
1298.45	200
1303.98	218
1309.5	228
1315.02	234
1320.53	274
1326.04	284
1331.54	282
1337.04	290
1342.53	282
1348.02	272
1353.5	276
1358.98	278
1364.45	286
1369.91	284
1375.37	280
1380.82	268
1386.27	268
1391.71	244
1397.15	238
1402.58	240
1408.01	228
1413.43	222
1418.85	244
1424.26	216
1429.66	246
1435.06	256
1440.46	296
1445.85	330
1451.23	338
1456.61	280
1461.98	228
1467.35	212
1472.71	196
1478.07	192
1483.42	190
1488.77	180
1494.11	192
1499.45	180
1504.78	182
1510.11	180
1515.43	160
1520.74	172
1526.05	182
1531.36	162
1536.66	176
1541.95	174
1547.24	164
1552.52	160
1557.8	170
1563.08	168
1568.35	186
1573.61	200
1578.87	288
1584.12	398
1589.37	246
1594.61	322
1599.85	644
1605.08	542
1610.31	280
1615.53	214
1620.75	164
1625.96	168
1631.17	154
1636.37	152
1641.57	152
1646.76	154
1651.95	164
1657.13	142
1662.31	138
1667.48	136
1672.65	126
1677.81	128
1682.97	120
1688.12	128
1693.27	122
1698.41	126
1702.26	122

File: ps-ppo-6jan25-1,0000-map3_Y10_X09.txt
204.377	848
211.048	902
217.712	910
224.369	878
231.019	728
237.661	544
244.297	372
250.924	316
257.546	270
264.16	250
270.766	252
277.365	228
283.958	226
290.543	186
297.121	180
303.693	174
310.256	174
316.813	180
323.362	182
329.905	162
336.441	180
342.969	170
349.491	156
356.006	152
362.513	152
369.014	164
375.508	160
381.994	174
388.473	182
394.947	194
401.412	226
407.871	224
414.323	200
420.768	178
427.206	152
433.637	140
440.062	142
446.479	130
452.89	122
459.293	112
465.691	108
472.081	120
478.463	108
484.84	100
491.21	96
497.573	106
503.929	110
510.279	120
516.621	116
522.957	120
529.287	122
535.609	136
541.925	154
548.234	134
554.536	138
560.832	140
567.12	142
573.403	136
579.679	126
585.948	116
592.211	108
598.466	114
604.715	128
610.958	152
617.194	332
623.424	470
629.647	158
635.864	122
642.074	88
648.276	82
654.473	90
660.664	86
666.847	78
673.025	72
679.195	72
685.36	74
691.517	80
697.669	92
703.814	98
709.953	96
716.085	98
722.21	146
728.33	130
734.443	140
740.549	176
746.65	190
752.743	210
758.831	220
764.912	212
770.986	214
777.055	200
783.117	242
789.173	322
795.222	342
801.265	290
807.302	192
813.333	166
819.357	136
825.376	126
831.387	120
837.392	146
843.392	156
849.386	150
855.372	128
861.353	118
867.328	122
873.296	124
879.258	126
885.214	110
891.164	118
897.108	118
903.046	150
908.977	146
914.903	120
920.822	104
926.735	104
932.643	98
938.543	96
944.439	98
950.328	114
956.21	108
962.088	116
967.958	132
973.824	138
979.682	180
985.534	278
991.382	830
997.222	1276
1003.06	2854
1008.89	448
1014.71	204
1020.53	222
1026.34	464
1032.14	876
1037.94	404
1043.73	208
1049.52	170
1055.3	150
1061.08	160
1066.85	154
1072.61	162
1078.37	172
1084.12	170
1089.87	158
1095.61	176
1101.34	184
1107.07	144
1112.8	130
1118.51	120
1124.22	112
1129.93	106
1135.63	108
1141.32	136
1147.01	176
1152.69	366
1158.37	346
1164.04	208
1169.71	208
1175.37	306
1181.02	512
1186.67	432
1192.31	484
1197.95	492
1203.58	446
1209.2	348
1214.82	246
1220.44	216
1226.05	208
1231.65	190
1237.25	180
1242.84	178
1248.42	170
1254	172
1259.58	160
1265.15	176
1270.71	176
1276.27	156
1281.82	178
1287.37	182
1292.91	196
1298.45	228
1303.98	218
1309.5	242
1315.02	256
1320.53	286
1326.04	294
1331.54	298
1337.04	314
1342.53	274
1348.02	278
1353.5	270
1358.98	292
1364.45	290
1369.91	280
1375.37	286
1380.82	274
1386.27	260
1391.71	252
1397.15	266
1402.58	260
1408.01	242
1413.43	246
1418.85	224
1424.26	246
1429.66	232
1435.06	256
1440.46	306
1445.85	326
1451.23	346
1456.61	280
1461.98	222
1467.35	204
1472.71	192
1478.07	198
1483.42	196
1488.77	186
1494.11	204
1499.45	174
1504.78	172
1510.11	168
1515.43	166
1520.74	168
1526.05	176
1531.36	174
1536.66	170
1541.95	170
1547.24	178
1552.52	172
1557.8	172
1563.08	180
1568.35	182
1573.61	194
1578.87	276
1584.12	410
1589.37	256
1594.61	310
1599.85	614
1605.08	548
1610.31	276
1615.53	210
1620.75	180
1625.96	164
1631.17	150
1636.37	144
1641.57	168
1646.76	160
1651.95	148
1657.13	136
1662.31	140
1667.48	138
1672.65	136
1677.81	134
1682.97	132
1688.12	140
1693.27	134
1698.41	118
1702.26	122