Folder: NRC_SU25_Spectral_Classification/Jesse_Dataset_v2/Pure Raman/Polystyrene/785nm (part 3)

File: ps-ppo-6jan25-1,0000-map3_Y03_X04.txt
204.377	822
211.048	872
217.712	912
224.369	860
231.019	708
237.661	536
244.297	388
250.924	286
257.546	272
264.16	246
270.766	236
277.365	224
283.958	206
290.543	184
297.121	170
303.693	178
310.256	162
316.813	162
323.362	166
329.905	154
336.441	160
342.969	160
349.491	154
356.006	152
362.513	138
369.014	156
375.508	154
381.994	172
388.473	182
394.947	194
401.412	210
407.871	214
414.323	196
420.768	154
427.206	150
433.637	138
440.062	124
446.479	130
452.89	116
459.293	106
465.691	110
472.081	88
478.463	96
484.84	90
491.21	94
497.573	102
503.929	108
510.279	92
516.621	106
522.957	106
529.287	108
535.609	134
541.925	136
548.234	132
554.536	134
560.832	132
567.12	132
573.403	140
579.679	110
585.948	110
592.211	106
598.466	116
604.715	124
610.958	126
617.194	312
623.424	458
629.647	132
635.864	106
642.074	90
648.276	84
654.473	74
660.664	76
666.847	70
673.025	72
679.195	72
685.36	70
691.517	76
697.669	90
703.814	94
709.953	98
716.085	104
722.21	130
728.33	132
734.443	138
740.549	174
746.65	178
752.743	206
758.831	236
764.912	224
770.986	210
777.055	190
783.117	226
789.173	300
795.222	362
801.265	282
807.302	192
813.333	156
819.357	122
825.376	110
831.387	118
837.392	150
843.392	152
849.386	132
855.372	122
861.353	118
867.328	118
873.296	112
879.258	114
885.214	110
891.164	106
897.108	124
903.046	144
908.977	138
914.903	112
920.822	90
926.735	96
932.643	100
938.543	90
944.439	92
950.328	96
956.21	102
962.088	128
967.958	112
973.824	132
979.682	182
985.534	278
991.382	756
997.222	1242
1003.06	2848
1008.89	438
1014.71	196
1020.53	226
1026.34	510
1032.14	896
1037.94	408
1043.73	202
1049.52	176
1055.3	150
1061.08	154
1066.85	158
1072.61	170
1078.37	160
1084.12	158
1089.87	164
1095.61	170
1101.34	158
1107.07	142
1112.8	126
1118.51	112
1124.22	104
1129.93	106
1135.63	114
1141.32	126
1147.01	170
1152.69	348
1158.37	336
1164.04	206
1169.71	206
1175.37	282
1181.02	498
1186.67	410
1192.31	458
1197.95	506
1203.58	434
1209.2	308
1214.82	230
1220.44	198
1226.05	202
1231.65	168
1237.25	170
1242.84	166
1248.42	170
1254	168
1259.58	150
1265.15	166
1270.71	160
1276.27	174
1281.82	168
1287.37	174
1292.91	194
1298.45	206
1303.98	196
1309.5	238
1315.02	228
1320.53	254
1326.04	284
1331.54	282
1337.04	286
1342.53	270
1348.02	254
1353.5	270
1358.98	276
1364.45	292
1369.91	286
1375.37	280
1380.82	242
1386.27	238
1391.71	228
1397.15	218
1402.58	228
1408.01	226
1413.43	220
1418.85	212
1424.26	210
1429.66	226
1435.06	244
1440.46	282
1445.85	310
1451.23	326
1456.61	278
1461.98	208
1467.35	202
1472.71	178
1478.07	174
1483.42	178
1488.77	174
1494.11	176
1499.45	174
1504.78	158
1510.11	168
1515.43	174
1520.74	164
1526.05	156
1531.36	154
1536.66	152
1541.95	164
1547.24	162
1552.52	158
1557.8	160
1563.08	168
1568.35	178
1573.61	210
1578.87	268
1584.12	384
1589.37	246
1594.61	282
1599.85	610
1605.08	568
1610.31	268
1615.53	198
1620.75	184
1625.96	156
1631.17	150
1636.37	146
1641.57	148
1646.76	148
1651.95	146
1657.13	132
1662.31	134
1667.48	132
1672.65	128
1677.81	120
1682.97	118
1688.12	126
1693.27	124
1698.41	120
1702.26	122

File: ps-ppo-6jan25-1,0000-map3_Y04_X00.txt
204.377	808
211.048	906
217.712	930
224.369	886
231.019	704
237.661	560
244.297	378
250.924	286
257.546	292
264.16	254
270.766	236
277.365	226
283.958	218
290.543	174
297.121	176
303.693	174
310.256	166
316.813	158
323.362	162
329.905	166
336.441	166
342.969	144
349.491	148
356.006	136
362.513	152
369.014	140
375.508	146
381.994	168
388.473	168
394.947	198
401.412	216
407.871	232
414.323	186
420.768	174
427.206	138
433.637	142
440.062	130
446.479	120
452.89	120
459.293	112
465.691	100
472.081	100
478.463	104
484.84	98
491.21	100
497.573	94
503.929	116
510.279	92
516.621	102
522.957	110
529.287	122
535.609	132
541.925	142
548.234	140
554.536	130
560.832	134
567.12	128
573.403	130
579.679	114
585.948	108
592.211	108
598.466	116
604.715	122
610.958	152
617.194	326
623.424	464
629.647	138
635.864	102
642.074	84
648.276	82
654.473	78
660.664	82
666.847	72
673.025	74
679.195	68
685.36	76
691.517	72
697.669	82
703.814	96
709.953	94
716.085	92
722.21	130
728.33	128
734.443	138
740.549	182
746.65	182
752.743	208
758.831	220
764.912	210
770.986	192
777.055	208
783.117	234
789.173	310
795.222	342
801.265	264
807.302	200
813.333	148
819.357	118
825.376	118
831.387	118
837.392	146
843.392	154
849.386	140
855.372	118
861.353	128
867.328	112
873.296	120
879.258	114
885.214	108
891.164	106
897.108	112
903.046	134
908.977	136
914.903	118
920.822	102
926.735	98
932.643	94
938.543	90
944.439	100
950.328	96
956.21	100
962.088	120
967.958	142
973.824	140
979.682	180
985.534	274
991.382	740
997.222	1222
1003.06	2916
1008.89	450
1014.71	170
1020.53	204
1026.34	500
1032.14	906
1037.94	416
1043.73	198
1049.52	150
1055.3	154
1061.08	152
1066.85	166
1072.61	170
1078.37	170
1084.12	164
1089.87	156
1095.61	168
1101.34	160
1107.07	142
1112.8	120
1118.51	108
1124.22	110
1129.93	104
1135.63	114
1141.32	132
1147.01	180
1152.69	352
1158.37	354
1164.04	214
1169.71	210
1175.37	274
1181.02	506
1186.67	414
1192.31	458
1197.95	482
1203.58	444
1209.2	294
1214.82	234
1220.44	192
1226.05	192
1231.65	174
1237.25	176
1242.84	166
1248.42	166
1254	156
1259.58	174
1265.15	164
1270.71	162
1276.27	162
1281.82	166
1287.37	170
1292.91	186
1298.45	206
1303.98	212
1309.5	214
1315.02	230
1320.53	272
1326.04	284
1331.54	306
1337.04	266
1342.53	250
1348.02	248
1353.5	260
1358.98	242
1364.45	264
1369.91	270
1375.37	274
1380.82	250
1386.27	230
1391.71	228
1397.15	210
1402.58	224
1408.01	224
1413.43	212
1418.85	202
1424.26	208
1429.66	216
1435.06	238
1440.46	270
1445.85	326
1451.23	312
1456.61	254
1461.98	204
1467.35	180
1472.71	180
1478.07	172
1483.42	180
1488.77	176
1494.11	184
1499.45	162
1504.78	168
1510.11	146
1515.43	150
1520.74	146
1526.05	152
1531.36	150
1536.66	160
1541.95	156
1547.24	152
1552.52	156
1557.8	148
1563.08	160
1568.35	162
1573.61	174
1578.87	258
1584.12	386
1589.37	246
1594.61	312
1599.85	594
1605.08	548
1610.31	268
1615.53	188
1620.75	166
1625.96	152
1631.17	148
1636.37	132
1641.57	148
1646.76	142
1651.95	146
1657.13	136
1662.31	122
1667.48	130
1672.65	122
1677.81	130
1682.97	124
1688.12	114
1693.27	114
1698.41	122
1702.26	114

File: ps-ppo-6jan25-1,0000-map3_Y04_X01.txt
204.377	836
211.048	894
217.712	922
224.369	872
231.019	698
237.661	548
244.297	386
250.924	298
257.546	272
264.16	242
270.766	242
277.365	238
283.958	200
290.543	174
297.121	172
303.693	150
310.256	166
316.813	168
323.362	156
329.905	156
336.441	160
342.969	158
349.491	140
356.006	146
362.513	142
369.014	148
375.508	152
381.994	174
388.473	172
394.947	196
401.412	204
407.871	236
414.323	200
420.768	154
427.206	136
433.637	140
440.062	134
446.479	132
452.89	110
459.293	100
465.691	106
472.081	96
478.463	100
484.84	98
491.21	84
497.573	106
503.929	108
510.279	112
516.621	100
522.957	114
529.287	120
535.609	144
541.925	144
548.234	128
554.536	134
560.832	140
567.12	136
573.403	146
579.679	114
585.948	98
592.211	112
598.466	118
604.715	124
610.958	142
617.194	312
623.424	456
629.647	144
635.864	102
642.074	82
648.276	82
654.473	80
660.664	76
666.847	82
673.025	74
679.195	70
685.36	64
691.517	80
697.669	82
703.814	104
709.953	74
716.085	88
722.21	130
728.33	120
734.443	128
740.549	172
746.65	186
752.743	212
758.831	236
764.912	218
770.986	202
777.055	194
783.117	238
789.173	304
795.222	338
801.265	290
807.302	188
813.333	160
819.357	126
825.376	102
831.387	104
837.392	140
843.392	168
849.386	142
855.372	116
861.353	136
867.328	124
873.296	124
879.258	122
885.214	102
891.164	118
897.108	112
903.046	128
908.977	150
914.903	118
920.822	104
926.735	94
932.643	102
938.543	102
944.439	94
950.328	100
956.21	100
962.088	118
967.958	118
973.824	134
979.682	176
985.534	282
991.382	758
997.222	1202
1003.06	2882
1008.89	424
1014.71	190
1020.53	228
1026.34	486
1032.14	866
1037.94	408
1043.73	202
1049.52	160
1055.3	154
1061.08	144
1066.85	168
1072.61	174
1078.37	176
1084.12	170
1089.87	164
1095.61	166
1101.34	166
1107.07	136
1112.8	128
1118.51	110
1124.22	110
1129.93	106
1135.63	112
1141.32	130
1147.01	162
1152.69	344
1158.37	348
1164.04	208
1169.71	198
1175.37	296
1181.02	528
1186.67	420
1192.31	458
1197.95	490
1203.58	436
1209.2	314
1214.82	218
1220.44	196
1226.05	190
1231.65	182
1237.25	176
1242.84	168
1248.42	164
1254	160
1259.58	160
1265.15	160
1270.71	160
1276.27	160
1281.82	174
1287.37	164
1292.91	178
1298.45	212
1303.98	204
1309.5	232
1315.02	230
1320.53	262
1326.04	276
1331.54	276
1337.04	276
1342.53	252
1348.02	264
1353.5	252
1358.98	266
1364.45	266
1369.91	280
1375.37	266
1380.82	258
1386.27	246
1391.71	230
1397.15	230
1402.58	228
1408.01	222
1413.43	212
1418.85	200
1424.26	208
1429.66	210
1435.06	234
1440.46	270
1445.85	314
1451.23	316
1456.61	270
1461.98	212
1467.35	188
1472.71	184
1478.07	176
1483.42	166
1488.77	170
1494.11	172
1499.45	164
1504.78	156
1510.11	160
1515.43	158
1520.74	154
1526.05	144
1531.36	166
1536.66	144
1541.95	154
1547.24	146
1552.52	154
1557.8	148
1563.08	154
1568.35	172
1573.61	182
1578.87	264
1584.12	396
1589.37	248
1594.61	304
1599.85	604
1605.08	544
1610.31	282
1615.53	196
1620.75	172
1625.96	164
1631.17	154
1636.37	146
1641.57	148
1646.76	136
1651.95	138
1657.13	132
1662.31	130
1667.48	126
1672.65	134
1677.81	124
1682.97	116
1688.12	120
1693.27	116
1698.41	120
1702.26	110

File: ps-ppo-6jan25-1,0000-map3_Y04_X02.txt
204.377	818
211.048	886
217.712	904
224.369	856
231.019	706
237.661	534
244.297	376
250.924	308
257.546	278
264.16	252
270.766	252
277.365	236
283.958	214
290.543	186
297.121	176
303.693	166
310.256	176
316.813	164
323.362	172
329.905	178
336.441	172
342.969	154
349.491	152
356.006	152
362.513	138
369.014	148
375.508	152
381.994	172
388.473	172
394.947	196
401.412	204
407.871	230
414.323	192
420.768	168
427.206	146
433.637	144
440.062	140
446.479	124
452.89	108
459.293	110
465.691	110
472.081	106
478.463	94
484.84	102
491.21	92
497.573	98
503.929	106
510.279	94
516.621	108
522.957	108
529.287	128
535.609	128
541.925	148
548.234	140
554.536	136
560.832	124
567.12	132
573.403	140
579.679	112
585.948	110
592.211	108
598.466	100
604.715	134
610.958	138
617.194	318
623.424	460
629.647	128
635.864	102
642.074	88
648.276	78
654.473	78
660.664	82
666.847	72
673.025	62
679.195	74
685.36	76
691.517	66
697.669	84
703.814	96
709.953	86
716.085	96
722.21	126
728.33	126
734.443	134
740.549	172
746.65	184
752.743	202
758.831	238
764.912	212
770.986	194
777.055	196
783.117	232
789.173	298
795.222	350
801.265	284
807.302	212
813.333	152
819.357	128
825.376	112
831.387	124
837.392	134
843.392	154
849.386	138
855.372	132
861.353	120
867.328	124
873.296	122
879.258	120
885.214	106
891.164	108
897.108	114
903.046	132
908.977	130
914.903	114
920.822	102
926.735	102
932.643	100
938.543	102
944.439	100
950.328	100
956.21	90
962.088	128
967.958	122
973.824	120
979.682	190
985.534	266
991.382	728
997.222	1206
1003.06	2918
1008.89	446
1014.71	186
1020.53	218
1026.34	478
1032.14	864
1037.94	410
1043.73	202
1049.52	154
1055.3	152
1061.08	152
1066.85	168
1072.61	174
1078.37	154
1084.12	168
1089.87	150
1095.61	170
1101.34	174
1107.07	136
1112.8	128
1118.51	118
1124.22	98
1129.93	106
1135.63	102
1141.32	134
1147.01	178
1152.69	360
1158.37	372
1164.04	218
1169.71	198
1175.37	286
1181.02	508
1186.67	434
1192.31	470
1197.95	498
1203.58	440
1209.2	338
1214.82	242
1220.44	186
1226.05	204
1231.65	172
1237.25	174
1242.84	164
1248.42	172
1254	166
1259.58	162
1265.15	158
1270.71	174
1276.27	166
1281.82	172
1287.37	184
1292.91	194
1298.45	202
1303.98	196
1309.5	228
1315.02	232
1320.53	268
1326.04	274
1331.54	296
1337.04	268
1342.53	268
1348.02	260
1353.5	260
1358.98	264
1364.45	266
1369.91	270
1375.37	282
1380.82	268
1386.27	232
1391.71	240
1397.15	222
1402.58	220
1408.01	220
1413.43	214
1418.85	228
1424.26	226
1429.66	208
1435.06	236
1440.46	270
1445.85	336
1451.23	324
1456.61	250
1461.98	192
1467.35	194
1472.71	174
1478.07	182
1483.42	170
1488.77	170
1494.11	178
1499.45	158
1504.78	180
1510.11	170
1515.43	154
1520.74	164
1526.05	148
1531.36	166
1536.66	150
1541.95	168
1547.24	148
1552.52	166
1557.8	170
1563.08	156
1568.35	166
1573.61	198
1578.87	274
1584.12	400
1589.37	238
1594.61	294
1599.85	602
1605.08	538
1610.31	284
1615.53	186
1620.75	148
1625.96	172
1631.17	152
1636.37	152
1641.57	150
1646.76	144
1651.95	142
1657.13	140
1662.31	128
1667.48	132
1672.65	120
1677.81	134
1682.97	126
1688.12	124
1693.27	126
1698.41	122
1702.26	118

File: ps-ppo-6jan25-1,0000-map3_Y04_X03.txt
204.377	860
211.048	896
217.712	936
224.369	874
231.019	722
237.661	534
244.297	378
250.924	300
257.546	272
264.16	258
270.766	260
277.365	232
283.958	230
290.543	184
297.121	178
303.693	160
310.256	168
316.813	182
323.362	182
329.905	166
336.441	168
342.969	176
349.491	156
356.006	150
362.513	154
369.014	148
375.508	168
381.994	178
388.473	188
394.947	180
401.412	224
407.871	232
414.323	194
420.768	184
427.206	162
433.637	144
440.062	136
446.479	126
452.89	124
459.293	104
465.691	104
472.081	112
478.463	102
484.84	106
491.21	98
497.573	108
503.929	114
510.279	110
516.621	114
522.957	106
529.287	112
535.609	150
541.925	158
548.234	144
554.536	146
560.832	144
567.12	132
573.403	136
579.679	120
585.948	108
592.211	120
598.466	114
604.715	134
610.958	144
617.194	326
623.424	466
629.647	138
635.864	100
642.074	80
648.276	78
654.473	78
660.664	80
666.847	76
673.025	78
679.195	72
685.36	80
691.517	74
697.669	80
703.814	106
709.953	100
716.085	98
722.21	134
728.33	120
734.443	140
740.549	180
746.65	192
752.743	212
758.831	246
764.912	216
770.986	200
777.055	206
783.117	246
789.173	310
795.222	318
801.265	286
807.302	178
813.333	154
819.357	130
825.376	110
831.387	114
837.392	154
843.392	158
849.386	128
855.372	130
861.353	124
867.328	124
873.296	128
879.258	118
885.214	118
891.164	116
897.108	124
903.046	136
908.977	146
914.903	120
920.822	100
926.735	96
932.643	98
938.543	98
944.439	104
950.328	100
956.21	110
962.088	118
967.958	118
973.824	140
979.682	192
985.534	262
991.382	754
997.222	1224
1003.06	2898
1008.89	420
1014.71	188
1020.53	216
1026.34	492
1032.14	892
1037.94	422
1043.73	220
1049.52	160
1055.3	154
1061.08	164
1066.85	170
1072.61	174
1078.37	168
1084.12	164
1089.87	166
1095.61	172
1101.34	170
1107.07	148
1112.8	136
1118.51	118
1124.22	108
1129.93	100
1135.63	102
1141.32	122
1147.01	158
1152.69	370
1158.37	356
1164.04	214
1169.71	214
1175.37	294
1181.02	530
1186.67	450
1192.31	462
1197.95	512
1203.58	438
1209.2	320
1214.82	244
1220.44	202
1226.05	190
1231.65	170
1237.25	160
1242.84	164
1248.42	172
1254	162
1259.58	166
1265.15	164
1270.71	170
1276.27	162
1281.82	182
1287.37	180
1292.91	194
1298.45	196
1303.98	220
1309.5	248
1315.02	242
1320.53	266
1326.04	288
1331.54	296
1337.04	290
1342.53	278
1348.02	250
1353.5	260
1358.98	268
1364.45	280
1369.91	286
1375.37	284
1380.82	246
1386.27	242
1391.71	244
1397.15	246
1402.58	218
1408.01	216
1413.43	218
1418.85	220
1424.26	200
1429.66	208
1435.06	236
1440.46	278
1445.85	328
1451.23	316
1456.61	262
1461.98	206
1467.35	192
1472.71	182
1478.07	180
1483.42	170
1488.77	188
1494.11	190
1499.45	172
1504.78	168
1510.11	174
1515.43	158
1520.74	156
1526.05	154
1531.36	162
1536.66	152
1541.95	164
1547.24	152
1552.52	166
1557.8	158
1563.08	166
1568.35	168
1573.61	204
1578.87	274
1584.12	422
1589.37	246
1594.61	304
1599.85	596
1605.08	538
1610.31	282
1615.53	202
1620.75	172
1625.96	160
1631.17	158
1636.37	144
1641.57	148
1646.76	154
1651.95	134
1657.13	144
1662.31	140
1667.48	126
1672.65	126
1677.81	120
1682.97	128
1688.12	122
1693.27	122
1698.41	120
1702.26	116

File: ps-ppo-6jan25-1,0000-map3_Y04_X04.txt
204.377	808
211.048	862
217.712	910
224.369	890
231.019	722
237.661	540
244.297	374
250.924	312
257.546	278
264.16	238
270.766	250
277.365	240
283.958	208
290.543	182
297.121	160
303.693	164
310.256	164
316.813	160
323.362	188
329.905	178
336.441	160
342.969	158
349.491	148
356.006	146
362.513	160
369.014	150
375.508	148
381.994	180
388.473	178
394.947	194
401.412	218
407.871	240
414.323	206
420.768	162
427.206	158
433.637	160
440.062	140
446.479	134
452.89	120
459.293	114
465.691	106
472.081	112
478.463	100
484.84	96
491.21	104
497.573	106
503.929	114
510.279	104
516.621	106
522.957	114
529.287	114
535.609	152
541.925	144
548.234	138
554.536	132
560.832	144
567.12	130
573.403	134
579.679	122
585.948	118
592.211	116
598.466	116
604.715	130
610.958	138
617.194	324
623.424	482
629.647	158
635.864	108
642.074	92
648.276	88
654.473	74
660.664	80
666.847	80
673.025	80
679.195	76
685.36	78
691.517	74
697.669	86
703.814	96
709.953	90
716.085	92
722.21	124
728.33	128
734.443	132
740.549	172
746.65	190
752.743	222
758.831	224
764.912	218
770.986	200
777.055	218
783.117	236
789.173	318
795.222	350
801.265	294
807.302	192
813.333	158
819.357	132
825.376	112
831.387	114
837.392	146
843.392	158
849.386	134
855.372	130
861.353	132
867.328	116
873.296	114
879.258	126
885.214	106
891.164	112
897.108	118
903.046	142
908.977	144
914.903	126
920.822	96
926.735	94
932.643	100
938.543	92
944.439	94
950.328	102
956.21	110
962.088	122
967.958	120
973.824	122
979.682	186
985.534	278
991.382	762
997.222	1232
1003.06	2908
1008.89	452
1014.71	192
1020.53	216
1026.34	486
1032.14	888
1037.94	418
1043.73	196
1049.52	160
1055.3	154
1061.08	150
1066.85	174
1072.61	176
1078.37	160
1084.12	154
1089.87	172
1095.61	168
1101.34	172
1107.07	146
1112.8	136
1118.51	112
1124.22	106
1129.93	114
1135.63	98
1141.32	128
1147.01	186
1152.69	344
1158.37	342
1164.04	214
1169.71	212
1175.37	300
1181.02	520
1186.67	450
1192.31	468
1197.95	506
1203.58	430
1209.2	316
1214.82	254
1220.44	194
1226.05	188
1231.65	182
1237.25	178
1242.84	164
1248.42	162
1254	160
1259.58	168
1265.15	172
1270.71	186
1276.27	168
1281.82	170
1287.37	174
1292.91	188
1298.45	210
1303.98	224
1309.5	228
1315.02	236
1320.53	270
1326.04	290
1331.54	280
1337.04	278
1342.53	264
1348.02	268
1353.5	258
1358.98	264
1364.45	262
1369.91	262
1375.37	280
1380.82	252
1386.27	246
1391.71	234
1397.15	228
1402.58	230
1408.01	216
1413.43	238
1418.85	220
1424.26	214
1429.66	220
1435.06	242
1440.46	270
1445.85	326
1451.23	320
1456.61	284
1461.98	212
1467.35	178
1472.71	186
1478.07	184
1483.42	174
1488.77	172
1494.11	166
1499.45	172
1504.78	162
1510.11	160
1515.43	170
1520.74	176
1526.05	154
1531.36	156
1536.66	162
1541.95	170
1547.24	162
1552.52	162
1557.8	162
1563.08	162
1568.35	180
1573.61	178
1578.87	266
1584.12	400
1589.37	248
1594.61	316
1599.85	630
1605.08	534
1610.31	270
1615.53	192
1620.75	166
1625.96	158
1631.17	152
1636.37	158
1641.57	152
1646.76	160
1651.95	146
1657.13	134
1662.31	116
1667.48	126
1672.65	130
1677.81	126
1682.97	126
1688.12	122
1693.27	128
1698.41	124
1702.26	124

File: ps-ppo-6jan25-1,0000-map3_Y04_X05.txt
204.377	844
211.048	866
217.712	922
224.369	884
231.019	708
237.661	546
244.297	376
250.924	304
257.546	282
264.16	256
270.766	248
277.365	226
283.958	216
290.543	182
297.121	172
303.693	162
310.256	162
316.813	164
323.362	170
329.905	172
336.441	156
342.969	164
349.491	148
356.006	148
362.513	148
369.014	148
375.508	150
381.994	176
388.473	186
394.947	186
401.412	222
407.871	226
414.323	188
420.768	178
427.206	142
433.637	140
440.062	134
446.479	128
452.89	122
459.293	108
465.691	106
472.081	110
478.463	106
484.84	96
491.21	116
497.573	102
503.929	114
510.279	108
516.621	114
522.957	118
529.287	126
535.609	142
541.925	154
548.234	146
554.536	130
560.832	136
567.12	132
573.403	140
579.679	134
585.948	96
592.211	110
598.466	104
604.715	134
610.958	146
617.194	324
623.424	496
629.647	148
635.864	100
642.074	84
648.276	82
654.473	90
660.664	76
666.847	80
673.025	78
679.195	76
685.36	78
691.517	68
697.669	90
703.814	98
709.953	94
716.085	102
722.21	136
728.33	124
734.443	132
740.549	176
746.65	198
752.743	210
758.831	212
764.912	228
770.986	210
777.055	200
783.117	234
789.173	308
795.222	344
801.265	286
807.302	192
813.333	162
819.357	116
825.376	102
831.387	110
837.392	142
843.392	144
849.386	140
855.372	126
861.353	112
867.328	130
873.296	130
879.258	118
885.214	104
891.164	118
897.108	110
903.046	136
908.977	138
914.903	110
920.822	96
926.735	92
932.643	100
938.543	98
944.439	90
950.328	100
956.21	116
962.088	102
967.958	126
973.824	144
979.682	180
985.534	260
991.382	758
997.222	1210
1003.06	2870
1008.89	426
1014.71	184
1020.53	206
1026.34	496
1032.14	870
1037.94	420
1043.73	204
1049.52	152
1055.3	146
1061.08	148
1066.85	154
1072.61	170
1078.37	158
1084.12	172
1089.87	166
1095.61	178
1101.34	170
1107.07	132
1112.8	124
1118.51	124
1124.22	102
1129.93	100
1135.63	112
1141.32	136
1147.01	154
1152.69	342
1158.37	334
1164.04	220
1169.71	200
1175.37	304
1181.02	526
1186.67	438
1192.31	484
1197.95	480
1203.58	452
1209.2	320
1214.82	222
1220.44	188
1226.05	216
1231.65	186
1237.25	156
1242.84	172
1248.42	174
1254	174
1259.58	154
1265.15	174
1270.71	166
1276.27	182
1281.82	172
1287.37	168
1292.91	192
1298.45	192
1303.98	204
1309.5	230
1315.02	222
1320.53	262
1326.04	296
1331.54	312
1337.04	290
1342.53	260
1348.02	260
1353.5	266
1358.98	278
1364.45	276
1369.91	270
1375.37	286
1380.82	264
1386.27	238
1391.71	242
1397.15	234
1402.58	236
1408.01	230
1413.43	198
1418.85	232
1424.26	216
1429.66	210
1435.06	248
1440.46	284
1445.85	330
1451.23	318
1456.61	262
1461.98	216
1467.35	192
1472.71	178
1478.07	188
1483.42	190
1488.77	178
1494.11	208
1499.45	170
1504.78	176
1510.11	168
1515.43	164
1520.74	148
1526.05	158
1531.36	166
1536.66	162
1541.95	162
1547.24	166
1552.52	158
1557.8	164
1563.08	166
1568.35	176
1573.61	206
1578.87	276
1584.12	392
1589.37	238
1594.61	308
1599.85	588
1605.08	562
1610.31	276
1615.53	196
1620.75	180
1625.96	154
1631.17	142
1636.37	150
1641.57	140
1646.76	144
1651.95	146
1657.13	134
1662.31	132
1667.48	128
1672.65	124
1677.81	122
1682.97	122
1688.12	132
1693.27	116
1698.41	118
1702.26	106

File: ps-ppo-6jan25-1,0000-map3_Y04_X07.txt
204.377	832
211.048	894
217.712	914
224.369	888
231.019	720
237.661	528
244.297	382
250.924	324
257.546	292
264.16	268
270.766	238
277.365	234
283.958	208
290.543	192
297.121	178
303.693	166
310.256	174
316.813	156
323.362	166
329.905	176
336.441	164
342.969	160
349.491	142
356.006	154
362.513	158
369.014	152
375.508	168
381.994	170
388.473	168
394.947	202
401.412	212
407.871	232
414.323	182
420.768	164
427.206	148
433.637	140
440.062	142
446.479	126
452.89	110
459.293	106
465.691	106
472.081	108
478.463	104
484.84	98
491.21	106
497.573	96
503.929	106
510.279	106
516.621	102
522.957	106
529.287	114
535.609	148
541.925	144
548.234	134
554.536	142
560.832	140
567.12	128
573.403	134
579.679	118
585.948	114
592.211	94
598.466	118
604.715	136
610.958	148
617.194	324
623.424	458
629.647	138
635.864	106
642.074	78
648.276	82
654.473	76
660.664	70
666.847	80
673.025	70
679.195	74
685.36	76
691.517	76
697.669	78
703.814	96
709.953	88
716.085	96
722.21	142
728.33	126
734.443	140
740.549	186
746.65	180
752.743	198
758.831	232
764.912	218
770.986	196
777.055	182
783.117	234
789.173	312
795.222	352
801.265	290
807.302	190
813.333	172
819.357	126
825.376	104
831.387	122
837.392	146
843.392	168
849.386	130
855.372	122
861.353	118
867.328	122
873.296	120
879.258	114
885.214	120
891.164	120
897.108	124
903.046	142
908.977	148
914.903	112
920.822	100
926.735	98
932.643	98
938.543	96
944.439	102
950.328	100
956.21	104
962.088	120
967.958	132
973.824	132
979.682	186
985.534	272
991.382	766
997.222	1216
1003.06	2912
1008.89	444
1014.71	188
1020.53	220
1026.34	496
1032.14	876
1037.94	400
1043.73	204
1049.52	158
1055.3	158
1061.08	162
1066.85	168
1072.61	174
1078.37	162
1084.12	158
1089.87	174
1095.61	170
1101.34	154
1107.07	130
1112.8	126
1118.51	118
1124.22	96
1129.93	112
1135.63	104
1141.32	124
1147.01	166
1152.69	344
1158.37	348
1164.04	206
1169.71	222
1175.37	304
1181.02	518
1186.67	440
1192.31	478
1197.95	494
1203.58	434
1209.2	310
1214.82	236
1220.44	196
1226.05	198
1231.65	188
1237.25	168
1242.84	156
1248.42	166
1254	170
1259.58	176
1265.15	182
1270.71	160
1276.27	172
1281.82	178
1287.37	178
1292.91	188
1298.45	208
1303.98	222
1309.5	226
1315.02	248
1320.53	268
1326.04	284
1331.54	314
1337.04	280
1342.53	284
1348.02	274
1353.5	278
1358.98	254
1364.45	278
1369.91	270
1375.37	272
1380.82	266
1386.27	258
1391.71	240
1397.15	242
1402.58	228
1408.01	214
1413.43	232
1418.85	226
1424.26	210
1429.66	224
1435.06	238
1440.46	260
1445.85	324
1451.23	324
1456.61	260
1461.98	218
1467.35	198
1472.71	186
1478.07	186
1483.42	186
1488.77	180
1494.11	196
1499.45	172
1504.78	174
1510.11	172
1515.43	166
1520.74	166
1526.05	168
1531.36	174
1536.66	166
1541.95	158
1547.24	156
1552.52	164
1557.8	168
1563.08	168
1568.35	172
1573.61	188
1578.87	264
1584.12	402
1589.37	252
1594.61	318
1599.85	610
1605.08	534
1610.31	264
1615.53	200
1620.75	178
1625.96	174
1631.17	158
1636.37	146
1641.57	156
1646.76	150
1651.95	142
1657.13	132
1662.31	132
1667.48	130
1672.65	124
1677.81	122
1682.97	122
1688.12	124
1693.27	118
1698.41	118
1702.26	122