Folder: NRC_SU25_Spectral_Classification/Jesse_Dataset_v2/Pure Raman/Polystyrene/785nm (part 4)

File: ps-ppo-6jan25-1,0000-map3_Y04_X09.txt
204.377	858
211.048	892
217.712	918
224.369	906
231.019	714
237.661	566
244.297	386
250.924	302
257.546	278
264.16	274
270.766	240
277.365	244
283.958	218
290.543	198
297.121	168
303.693	172
310.256	164
316.813	172
323.362	172
329.905	166
336.441	176
342.969	176
349.491	162
356.006	152
362.513	146
369.014	158
375.508	164
381.994	166
388.473	192
394.947	198
401.412	226
407.871	230
414.323	204
420.768	184
427.206	164
433.637	136
440.062	146
446.479	134
452.89	124
459.293	110
465.691	110
472.081	114
478.463	102
484.84	102
491.21	106
497.573	112
503.929	106
510.279	102
516.621	100
522.957	118
529.287	130
535.609	136
541.925	154
548.234	138
554.536	142
560.832	146
567.12	132
573.403	144
579.679	130
585.948	114
592.211	102
598.466	108
604.715	134
610.958	148
617.194	332
623.424	476
629.647	148
635.864	118
642.074	96
648.276	86
654.473	80
660.664	86
666.847	84
673.025	72
679.195	82
685.36	78
691.517	86
697.669	88
703.814	108
709.953	106
716.085	102
722.21	140
728.33	132
734.443	130
740.549	178
746.65	188
752.743	200
758.831	232
764.912	230
770.986	206
777.055	206
783.117	234
789.173	300
795.222	354
801.265	288
807.302	214
813.333	166
819.357	136
825.376	118
831.387	118
837.392	144
843.392	168
849.386	142
855.372	128
861.353	122
867.328	130
873.296	130
879.258	118
885.214	110
891.164	122
897.108	122
903.046	144
908.977	154
914.903	118
920.822	104
926.735	100
932.643	104
938.543	106
944.439	110
950.328	116
956.21	112
962.088	128
967.958	128
973.824	142
979.682	188
985.534	284
991.382	768
997.222	1242
1003.06	2876
1008.89	448
1014.71	190
1020.53	228
1026.34	504
1032.14	914
1037.94	410
1043.73	220
1049.52	170
1055.3	160
1061.08	160
1066.85	186
1072.61	176
1078.37	172
1084.12	154
1089.87	172
1095.61	178
1101.34	164
1107.07	136
1112.8	134
1118.51	126
1124.22	118
1129.93	118
1135.63	122
1141.32	144
1147.01	182
1152.69	366
1158.37	360
1164.04	224
1169.71	224
1175.37	312
1181.02	508
1186.67	446
1192.31	490
1197.95	504
1203.58	462
1209.2	328
1214.82	252
1220.44	210
1226.05	216
1231.65	174
1237.25	176
1242.84	174
1248.42	182
1254	166
1259.58	188
1265.15	176
1270.71	186
1276.27	182
1281.82	176
1287.37	180
1292.91	202
1298.45	200
1303.98	226
1309.5	230
1315.02	254
1320.53	256
1326.04	300
1331.54	310
1337.04	272
1342.53	270
1348.02	290
1353.5	256
1358.98	274
1364.45	286
1369.91	292
1375.37	280
1380.82	268
1386.27	268
1391.71	256
1397.15	250
1402.58	236
1408.01	240
1413.43	238
1418.85	242
1424.26	234
1429.66	228
1435.06	262
1440.46	298
1445.85	336
1451.23	334
1456.61	270
1461.98	208
1467.35	190
1472.71	200
1478.07	194
1483.42	192
1488.77	182
1494.11	186
1499.45	174
1504.78	170
1510.11	178
1515.43	172
1520.74	166
1526.05	164
1531.36	168
1536.66	160
1541.95	176
1547.24	172
1552.52	170
1557.8	168
1563.08	180
1568.35	172
1573.61	202
1578.87	290
1584.12	420
1589.37	264
1594.61	328
1599.85	638
1605.08	558
1610.31	276
1615.53	212
1620.75	172
1625.96	174
1631.17	152
1636.37	164
1641.57	144
1646.76	150
1651.95	152
1657.13	132
1662.31	136
1667.48	122
1672.65	138
1677.81	124
1682.97	126
1688.12	120
1693.27	128
1698.41	134
1702.26	136

File: ps-ppo-6jan25-1,0000-map3_Y04_X10.txt
204.377	808
211.048	892
217.712	930
224.369	908
231.019	718
237.661	536
244.297	388
250.924	328
257.546	266
264.16	254
270.766	262
277.365	236
283.958	218
290.543	194
297.121	180
303.693	174
310.256	168
316.813	170
323.362	180
329.905	182
336.441	170
342.969	168
349.491	166
356.006	154
362.513	144
369.014	156
375.508	164
381.994	176
388.473	188
394.947	204
401.412	222
407.871	234
414.323	208
420.768	172
427.206	154
433.637	150
440.062	146
446.479	130
452.89	128
459.293	114
465.691	116
472.081	116
478.463	112
484.84	112
491.21	108
497.573	106
503.929	120
510.279	116
516.621	120
522.957	126
529.287	128
535.609	136
541.925	148
548.234	160
554.536	140
560.832	130
567.12	136
573.403	144
579.679	116
585.948	112
592.211	98
598.466	102
604.715	134
610.958	152
617.194	318
623.424	458
629.647	160
635.864	114
642.074	94
648.276	86
654.473	80
660.664	78
666.847	74
673.025	78
679.195	78
685.36	74
691.517	72
697.669	82
703.814	102
709.953	102
716.085	100
722.21	132
728.33	126
734.443	130
740.549	182
746.65	182
752.743	214
758.831	248
764.912	216
770.986	216
777.055	186
783.117	248
789.173	294
795.222	332
801.265	274
807.302	190
813.333	158
819.357	134
825.376	106
831.387	116
837.392	136
843.392	150
849.386	136
855.372	126
861.353	136
867.328	122
873.296	124
879.258	114
885.214	106
891.164	126
897.108	120
903.046	146
908.977	144
914.903	120
920.822	104
926.735	96
932.643	98
938.543	108
944.439	104
950.328	110
956.21	102
962.088	126
967.958	122
973.824	134
979.682	192
985.534	282
991.382	762
997.222	1226
1003.06	2878
1008.89	436
1014.71	198
1020.53	228
1026.34	492
1032.14	876
1037.94	416
1043.73	208
1049.52	156
1055.3	142
1061.08	156
1066.85	170
1072.61	172
1078.37	170
1084.12	170
1089.87	160
1095.61	180
1101.34	168
1107.07	160
1112.8	132
1118.51	128
1124.22	106
1129.93	108
1135.63	112
1141.32	126
1147.01	186
1152.69	362
1158.37	348
1164.04	222
1169.71	232
1175.37	312
1181.02	524
1186.67	446
1192.31	474
1197.95	512
1203.58	464
1209.2	324
1214.82	236
1220.44	210
1226.05	194
1231.65	184
1237.25	164
1242.84	172
1248.42	168
1254	170
1259.58	184
1265.15	174
1270.71	170
1276.27	162
1281.82	176
1287.37	186
1292.91	190
1298.45	206
1303.98	230
1309.5	228
1315.02	250
1320.53	270
1326.04	296
1331.54	298
1337.04	296
1342.53	276
1348.02	284
1353.5	290
1358.98	266
1364.45	274
1369.91	282
1375.37	286
1380.82	268
1386.27	254
1391.71	242
1397.15	244
1402.58	242
1408.01	248
1413.43	250
1418.85	234
1424.26	218
1429.66	232
1435.06	258
1440.46	286
1445.85	304
1451.23	354
1456.61	274
1461.98	222
1467.35	196
1472.71	192
1478.07	188
1483.42	184
1488.77	180
1494.11	190
1499.45	182
1504.78	172
1510.11	186
1515.43	174
1520.74	180
1526.05	178
1531.36	166
1536.66	176
1541.95	154
1547.24	176
1552.52	158
1557.8	170
1563.08	176
1568.35	180
1573.61	214
1578.87	266
1584.12	396
1589.37	262
1594.61	318
1599.85	610
1605.08	568
1610.31	262
1615.53	206
1620.75	182
1625.96	168
1631.17	156
1636.37	170
1641.57	158
1646.76	158
1651.95	140
1657.13	148
1662.31	146
1667.48	126
1672.65	124
1677.81	142
1682.97	138
1688.12	126
1693.27	134
1698.41	118
1702.26	130

File: ps-ppo-6jan25-1,0000-map3_Y05_X03.txt
204.377	860
211.048	898
217.712	938
224.369	860
231.019	720
237.661	566
244.297	356
250.924	330
257.546	294
264.16	292
270.766	250
277.365	242
283.958	224
290.543	204
297.121	184
303.693	172
310.256	174
316.813	186
323.362	196
329.905	176
336.441	188
342.969	178
349.491	170
356.006	158
362.513	150
369.014	164
375.508	172
381.994	182
388.473	172
394.947	196
401.412	230
407.871	248
414.323	208
420.768	180
427.206	158
433.637	162
440.062	148
446.479	130
452.89	138
459.293	122
465.691	110
472.081	114
478.463	118
484.84	114
491.21	112
497.573	112
503.929	112
510.279	120
516.621	124
522.957	124
529.287	142
535.609	152
541.925	164
548.234	156
554.536	148
560.832	148
567.12	136
573.403	150
579.679	130
585.948	118
592.211	122
598.466	126
604.715	140
610.958	158
617.194	320
623.424	462
629.647	170
635.864	102
642.074	98
648.276	94
654.473	78
660.664	84
666.847	90
673.025	88
679.195	74
685.36	84
691.517	84
697.669	92
703.814	110
709.953	94
716.085	106
722.21	142
728.33	142
734.443	142
740.549	190
746.65	196
752.743	218
758.831	230
764.912	226
770.986	198
777.055	208
783.117	238
789.173	328
795.222	350
801.265	268
807.302	210
813.333	164
819.357	140
825.376	122
831.387	120
837.392	154
843.392	162
849.386	136
855.372	126
861.353	132
867.328	140
873.296	132
879.258	126
885.214	106
891.164	128
897.108	116
903.046	148
908.977	146
914.903	126
920.822	102
926.735	100
932.643	102
938.543	94
944.439	108
950.328	104
956.21	110
962.088	122
967.958	134
973.824	124
979.682	182
985.534	274
991.382	774
997.222	1190
1003.06	2870
1008.89	420
1014.71	188
1020.53	230
1026.34	518
1032.14	928
1037.94	402
1043.73	224
1049.52	174
1055.3	154
1061.08	160
1066.85	170
1072.61	180
1078.37	178
1084.12	170
1089.87	162
1095.61	176
1101.34	174
1107.07	142
1112.8	136
1118.51	120
1124.22	122
1129.93	108
1135.63	106
1141.32	132
1147.01	166
1152.69	366
1158.37	348
1164.04	220
1169.71	220
1175.37	294
1181.02	532
1186.67	438
1192.31	496
1197.95	508
1203.58	450
1209.2	328
1214.82	236
1220.44	210
1226.05	188
1231.65	182
1237.25	174
1242.84	178
1248.42	170
1254	156
1259.58	174
1265.15	166
1270.71	162
1276.27	184
1281.82	174
1287.37	182
1292.91	206
1298.45	208
1303.98	216
1309.5	230
1315.02	230
1320.53	282
1326.04	304
1331.54	306
1337.04	302
1342.53	260
1348.02	256
1353.5	260
1358.98	262
1364.45	266
1369.91	284
1375.37	270
1380.82	262
1386.27	244
1391.71	230
1397.15	226
1402.58	244
1408.01	224
1413.43	232
1418.85	218
1424.26	196
1429.66	230
1435.06	252
1440.46	276
1445.85	318
1451.23	326
1456.61	272
1461.98	210
1467.35	190
1472.71	196
1478.07	190
1483.42	172
1488.77	178
1494.11	188
1499.45	182
1504.78	176
1510.11	178
1515.43	158
1520.74	172
1526.05	160
1531.36	164
1536.66	164
1541.95	170
1547.24	160
1552.52	154
1557.8	166
1563.08	170
1568.35	174
1573.61	182
1578.87	266
1584.12	406
1589.37	240
1594.61	294
1599.85	622
1605.08	584
1610.31	278
1615.53	202
1620.75	170
1625.96	158
1631.17	148
1636.37	154
1641.57	150
1646.76	144
1651.95	134
1657.13	140
1662.31	128
1667.48	120
1672.65	126
1677.81	130
1682.97	122
1688.12	122
1693.27	124
1698.41	108
1702.26	108

File: ps-ppo-6jan25-1,0000-map3_Y05_X04.txt
204.377	856
211.048	928
217.712	910
224.369	874
231.019	726
237.661	568
244.297	398
250.924	310
257.546	270
264.16	278
270.766	246
277.365	240
283.958	218
290.543	188
297.121	188
303.693	176
310.256	174
316.813	184
323.362	184
329.905	188
336.441	192
342.969	174
349.491	162
356.006	156
362.513	152
369.014	168
375.508	162
381.994	186
388.473	194
394.947	204
401.412	238
407.871	240
414.323	212
420.768	190
427.206	168
433.637	158
440.062	142
446.479	134
452.89	140
459.293	128
465.691	118
472.081	118
478.463	116
484.84	118
491.21	110
497.573	106
503.929	128
510.279	118
516.621	118
522.957	130
529.287	158
535.609	156
541.925	164
548.234	160
554.536	156
560.832	138
567.12	150
573.403	144
579.679	146
585.948	118
592.211	114
598.466	136
604.715	140
610.958	156
617.194	344
623.424	484
629.647	160
635.864	110
642.074	96
648.276	98
654.473	88
660.664	74
666.847	94
673.025	88
679.195	94
685.36	86
691.517	94
697.669	102
703.814	102
709.953	114
716.085	108
722.21	138
728.33	138
734.443	140
740.549	182
746.65	196
752.743	220
758.831	238
764.912	220
770.986	204
777.055	214
783.117	242
789.173	312
795.222	356
801.265	274
807.302	198
813.333	166
819.357	124
825.376	118
831.387	130
837.392	146
843.392	152
849.386	156
855.372	136
861.353	138
867.328	134
873.296	130
879.258	136
885.214	118
891.164	116
897.108	116
903.046	134
908.977	152
914.903	126
920.822	110
926.735	106
932.643	102
938.543	118
944.439	110
950.328	110
956.21	112
962.088	116
967.958	132
973.824	144
979.682	188
985.534	264
991.382	786
997.222	1200
1003.06	2932
1008.89	438
1014.71	194
1020.53	224
1026.34	492
1032.14	890
1037.94	388
1043.73	208
1049.52	166
1055.3	156
1061.08	176
1066.85	180
1072.61	168
1078.37	188
1084.12	172
1089.87	176
1095.61	176
1101.34	174
1107.07	158
1112.8	136
1118.51	122
1124.22	106
1129.93	108
1135.63	114
1141.32	140
1147.01	172
1152.69	378
1158.37	330
1164.04	210
1169.71	214
1175.37	302
1181.02	526
1186.67	442
1192.31	474
1197.95	490
1203.58	454
1209.2	318
1214.82	236
1220.44	206
1226.05	186
1231.65	174
1237.25	180
1242.84	176
1248.42	166
1254	174
1259.58	160
1265.15	182
1270.71	170
1276.27	186
1281.82	182
1287.37	182
1292.91	202
1298.45	196
1303.98	212
1309.5	230
1315.02	242
1320.53	274
1326.04	294
1331.54	300
1337.04	272
1342.53	258
1348.02	262
1353.5	280
1358.98	268
1364.45	278
1369.91	278
1375.37	272
1380.82	266
1386.27	262
1391.71	254
1397.15	228
1402.58	226
1408.01	226
1413.43	222
1418.85	208
1424.26	212
1429.66	222
1435.06	246
1440.46	292
1445.85	316
1451.23	318
1456.61	268
1461.98	208
1467.35	204
1472.71	184
1478.07	184
1483.42	172
1488.77	174
1494.11	190
1499.45	168
1504.78	176
1510.11	164
1515.43	162
1520.74	170
1526.05	164
1531.36	160
1536.66	156
1541.95	166
1547.24	172
1552.52	162
1557.8	162
1563.08	176
1568.35	168
1573.61	202
1578.87	260
1584.12	412
1589.37	252
1594.61	302
1599.85	602
1605.08	566
1610.31	282
1615.53	204
1620.75	178
1625.96	160
1631.17	154
1636.37	148
1641.57	140
1646.76	148
1651.95	146
1657.13	140
1662.31	136
1667.48	128
1672.65	128
1677.81	130
1682.97	136
1688.12	130
1693.27	126
1698.41	114
1702.26	130

File: ps-ppo-6jan25-1,0000-map3_Y05_X08.txt
204.377	828
211.048	900
217.712	958
224.369	882
231.019	738
237.661	538
244.297	390
250.924	318
257.546	290
264.16	290
270.766	246
277.365	248
283.958	216
290.543	184
297.121	170
303.693	170
310.256	182
316.813	176
323.362	172
329.905	176
336.441	172
342.969	168
349.491	150
356.006	156
362.513	154
369.014	160
375.508	164
381.994	188
388.473	188
394.947	202
401.412	204
407.871	212
414.323	198
420.768	172
427.206	154
433.637	142
440.062	146
446.479	130
452.89	118
459.293	114
465.691	116
472.081	112
478.463	100
484.84	102
491.21	108
497.573	106
503.929	116
510.279	110
516.621	116
522.957	120
529.287	124
535.609	156
541.925	150
548.234	146
554.536	142
560.832	146
567.12	138
573.403	148
579.679	118
585.948	120
592.211	112
598.466	118
604.715	140
610.958	144
617.194	344
623.424	458
629.647	156
635.864	112
642.074	96
648.276	80
654.473	88
660.664	82
666.847	84
673.025	70
679.195	80
685.36	78
691.517	84
697.669	90
703.814	112
709.953	94
716.085	98
722.21	144
728.33	132
734.443	130
740.549	180
746.65	190
752.743	222
758.831	240
764.912	224
770.986	204
777.055	214
783.117	246
789.173	306
795.222	362
801.265	282
807.302	196
813.333	180
819.357	126
825.376	120
831.387	118
837.392	146
843.392	160
849.386	134
855.372	126
861.353	132
867.328	132
873.296	124
879.258	126
885.214	110
891.164	118
897.108	128
903.046	152
908.977	146
914.903	126
920.822	110
926.735	106
932.643	100
938.543	106
944.439	120
950.328	100
956.21	94
962.088	132
967.958	128
973.824	150
979.682	174
985.534	286
991.382	804
997.222	1250
1003.06	2866
1008.89	440
1014.71	210
1020.53	218
1026.34	486
1032.14	894
1037.94	416
1043.73	214
1049.52	166
1055.3	156
1061.08	170
1066.85	164
1072.61	178
1078.37	178
1084.12	164
1089.87	168
1095.61	168
1101.34	160
1107.07	142
1112.8	136
1118.51	126
1124.22	116
1129.93	114
1135.63	118
1141.32	134
1147.01	180
1152.69	358
1158.37	348
1164.04	200
1169.71	210
1175.37	294
1181.02	532
1186.67	450
1192.31	482
1197.95	502
1203.58	446
1209.2	314
1214.82	234
1220.44	222
1226.05	196
1231.65	186
1237.25	162
1242.84	174
1248.42	166
1254	168
1259.58	172
1265.15	168
1270.71	180
1276.27	184
1281.82	180
1287.37	184
1292.91	192
1298.45	204
1303.98	228
1309.5	242
1315.02	232
1320.53	280
1326.04	294
1331.54	284
1337.04	292
1342.53	264
1348.02	282
1353.5	272
1358.98	268
1364.45	276
1369.91	282
1375.37	278
1380.82	268
1386.27	250
1391.71	248
1397.15	242
1402.58	234
1408.01	230
1413.43	248
1418.85	230
1424.26	222
1429.66	236
1435.06	234
1440.46	298
1445.85	320
1451.23	322
1456.61	272
1461.98	218
1467.35	194
1472.71	194
1478.07	182
1483.42	180
1488.77	184
1494.11	192
1499.45	184
1504.78	172
1510.11	188
1515.43	184
1520.74	176
1526.05	170
1531.36	172
1536.66	168
1541.95	168
1547.24	178
1552.52	164
1557.8	168
1563.08	172
1568.35	182
1573.61	190
1578.87	282
1584.12	418
1589.37	266
1594.61	306
1599.85	618
1605.08	534
1610.31	280
1615.53	200
1620.75	166
1625.96	168
1631.17	146
1636.37	162
1641.57	158
1646.76	152
1651.95	154
1657.13	150
1662.31	136
1667.48	138
1672.65	130
1677.81	136
1682.97	132
1688.12	126
1693.27	140
1698.41	130
1702.26	128

File: ps-ppo-6jan25-1,0000-map3_Y05_X09.txt
204.377	856
211.048	894
217.712	946
224.369	882
231.019	736
237.661	552
244.297	386
250.924	326
257.546	286
264.16	272
270.766	248
277.365	248
283.958	234
290.543	188
297.121	178
303.693	182
310.256	180
316.813	186
323.362	192
329.905	196
336.441	184
342.969	180
349.491	178
356.006	160
362.513	144
369.014	158
375.508	170
381.994	174
388.473	188
394.947	208
401.412	226
407.871	228
414.323	204
420.768	180
427.206	162
433.637	146
440.062	154
446.479	146
452.89	134
459.293	114
465.691	120
472.081	110
478.463	112
484.84	112
491.21	114
497.573	114
503.929	116
510.279	112
516.621	124
522.957	116
529.287	144
535.609	152
541.925	162
548.234	148
554.536	156
560.832	140
567.12	146
573.403	156
579.679	130
585.948	122
592.211	120
598.466	120
604.715	144
610.958	152
617.194	332
623.424	472
629.647	156
635.864	102
642.074	106
648.276	92
654.473	88
660.664	84
666.847	84
673.025	80
679.195	86
685.36	84
691.517	86
697.669	92
703.814	102
709.953	100
716.085	94
722.21	138
728.33	124
734.443	146
740.549	184
746.65	196
752.743	210
758.831	234
764.912	236
770.986	200
777.055	214
783.117	242
789.173	324
795.222	350
801.265	284
807.302	200
813.333	164
819.357	134
825.376	122
831.387	122
837.392	148
843.392	178
849.386	142
855.372	118
861.353	126
867.328	128
873.296	124
879.258	130
885.214	116
891.164	118
897.108	120
903.046	140
908.977	146
914.903	120
920.822	100
926.735	102
932.643	94
938.543	102
944.439	106
950.328	100
956.21	108
962.088	130
967.958	124
973.824	140
979.682	188
985.534	256
991.382	790
997.222	1242
1003.06	2828
1008.89	452
1014.71	190
1020.53	218
1026.34	488
1032.14	930
1037.94	406
1043.73	200
1049.52	160
1055.3	156
1061.08	158
1066.85	188
1072.61	158
1078.37	170
1084.12	172
1089.87	172
1095.61	164
1101.34	160
1107.07	138
1112.8	128
1118.51	122
1124.22	112
1129.93	110
1135.63	116
1141.32	126
1147.01	164
1152.69	356
1158.37	370
1164.04	208
1169.71	214
1175.37	300
1181.02	552
1186.67	462
1192.31	484
1197.95	494
1203.58	454
1209.2	322
1214.82	236
1220.44	204
1226.05	200
1231.65	182
1237.25	160
1242.84	180
1248.42	170
1254	166
1259.58	166
1265.15	176
1270.71	180
1276.27	178
1281.82	180
1287.37	176
1292.91	198
1298.45	192
1303.98	222
1309.5	236
1315.02	244
1320.53	270
1326.04	298
1331.54	304
1337.04	280
1342.53	284
1348.02	286
1353.5	272
1358.98	278
1364.45	286
1369.91	296
1375.37	278
1380.82	282
1386.27	254
1391.71	236
1397.15	250
1402.58	248
1408.01	240
1413.43	234
1418.85	228
1424.26	222
1429.66	234
1435.06	270
1440.46	278
1445.85	318
1451.23	332
1456.61	290
1461.98	212
1467.35	204
1472.71	192
1478.07	192
1483.42	186
1488.77	186
1494.11	186
1499.45	182
1504.78	174
1510.11	176
1515.43	186
1520.74	170
1526.05	190
1531.36	166
1536.66	182
1541.95	168
1547.24	168
1552.52	168
1557.8	166
1563.08	176
1568.35	178
1573.61	194
1578.87	270
1584.12	422
1589.37	246
1594.61	308
1599.85	620
1605.08	532
1610.31	284
1615.53	206
1620.75	182
1625.96	168
1631.17	160
1636.37	164
1641.57	154
1646.76	160
1651.95	146
1657.13	150
1662.31	146
1667.48	138
1672.65	138
1677.81	136
1682.97	132
1688.12	138
1693.27	136
1698.41	122
1702.26	126

File: ps-ppo-6jan25-1,0000-map3_Y06_X03.txt
204.377	836
211.048	874
217.712	944
224.369	870
231.019	712
237.661	552
244.297	394
250.924	322
257.546	284
264.16	288
270.766	248
277.365	226
283.958	224
290.543	208
297.121	184
303.693	168
310.256	176
316.813	176
323.362	182
329.905	172
336.441	180
342.969	176
349.491	156
356.006	156
362.513	162
369.014	168
375.508	172
381.994	176
388.473	200
394.947	202
401.412	222
407.871	238
414.323	202
420.768	176
427.206	162
433.637	140
440.062	154
446.479	138
452.89	122
459.293	124
465.691	122
472.081	120
478.463	116
484.84	108
491.21	118
497.573	122
503.929	128
510.279	116
516.621	126
522.957	122
529.287	128
535.609	154
541.925	152
548.234	148
554.536	138
560.832	144
567.12	142
573.403	146
579.679	128
585.948	128
592.211	122
598.466	114
604.715	140
610.958	164
617.194	332
623.424	466
629.647	144
635.864	128
642.074	96
648.276	94
654.473	78
660.664	84
666.847	84
673.025	88
679.195	80
685.36	80
691.517	84
697.669	94
703.814	102
709.953	98
716.085	102
722.21	130
728.33	136
734.443	142
740.549	188
746.65	200
752.743	210
758.831	242
764.912	218
770.986	216
777.055	200
783.117	240
789.173	296
795.222	348
801.265	286
807.302	200
813.333	170
819.357	128
825.376	118
831.387	116
837.392	144
843.392	150
849.386	134
855.372	128
861.353	124
867.328	130
873.296	130
879.258	120
885.214	106
891.164	110
897.108	134
903.046	142
908.977	150
914.903	118
920.822	102
926.735	110
932.643	96
938.543	92
944.439	106
950.328	102
956.21	102
962.088	122
967.958	142
973.824	138
979.682	184
985.534	276
991.382	772
997.222	1252
1003.06	2900
1008.89	436
1014.71	190
1020.53	214
1026.34	512
1032.14	882
1037.94	408
1043.73	212
1049.52	164
1055.3	156
1061.08	160
1066.85	170
1072.61	170
1078.37	180
1084.12	174
1089.87	154
1095.61	166
1101.34	172
1107.07	150
1112.8	128
1118.51	122
1124.22	106
1129.93	104
1135.63	116
1141.32	130
1147.01	162
1152.69	362
1158.37	322
1164.04	208
1169.71	212
1175.37	296
1181.02	530
1186.67	438
1192.31	474
1197.95	520
1203.58	470
1209.2	326
1214.82	230
1220.44	212
1226.05	204
1231.65	180
1237.25	176
1242.84	176
1248.42	176
1254	176
1259.58	176
1265.15	174
1270.71	162
1276.27	168
1281.82	172
1287.37	184
1292.91	172
1298.45	206
1303.98	220
1309.5	212
1315.02	230
1320.53	272
1326.04	294
1331.54	280
1337.04	298
1342.53	252
1348.02	258
1353.5	286
1358.98	266
1364.45	274
1369.91	284
1375.37	276
1380.82	242
1386.27	246
1391.71	232
1397.15	234
1402.58	238
1408.01	224
1413.43	224
1418.85	224
1424.26	204
1429.66	224
1435.06	250
1440.46	286
1445.85	334
1451.23	332
1456.61	270
1461.98	202
1467.35	198
1472.71	180
1478.07	188
1483.42	174
1488.77	180
1494.11	174
1499.45	174
1504.78	166
1510.11	168
1515.43	164
1520.74	168
1526.05	142
1531.36	164
1536.66	166
1541.95	146
1547.24	146
1552.52	158
1557.8	148
1563.08	160
1568.35	174
1573.61	192
1578.87	270
1584.12	394
1589.37	236
1594.61	302
1599.85	634
1605.08	566
1610.31	272
1615.53	200
1620.75	164
1625.96	160
1631.17	146
1636.37	154
1641.57	140
1646.76	154
1651.95	150
1657.13	138
1662.31	136
1667.48	132
1672.65	124
1677.81	128
1682.97	122
1688.12	116
1693.27	118
1698.41	116
1702.26	118

File: ps-ppo-6jan25-1,0000-map3_Y06_X07.txt
204.377	832
211.048	862
217.712	908
224.369	854
231.019	740
237.661	562
244.297	370
250.924	300
257.546	264
264.16	262
270.766	256
277.365	224
283.958	216
290.543	186
297.121	168
303.693	180
310.256	162
316.813	170
323.362	166
329.905	172
336.441	170
342.969	160
349.491	158
356.006	150
362.513	146
369.014	160
375.508	152
381.994	180
388.473	178
394.947	186
401.412	214
407.871	228
414.323	212
420.768	164
427.206	156
433.637	144
440.062	136
446.479	138
452.89	122
459.293	102
465.691	112
472.081	104
478.463	94
484.84	100
491.21	106
497.573	114
503.929	106
510.279	98
516.621	100
522.957	120
529.287	110
535.609	144
541.925	142
548.234	142
554.536	142
560.832	142
567.12	126
573.403	148
579.679	120
585.948	110
592.211	102
598.466	118
604.715	132
610.958	152
617.194	338
623.424	446
629.647	146
635.864	112
642.074	100
648.276	86
654.473	80
660.664	78
666.847	74
673.025	80
679.195	88
685.36	78
691.517	80
697.669	82
703.814	106
709.953	90
716.085	100
722.21	138
728.33	132
734.443	138
740.549	180
746.65	178
752.743	206
758.831	234
764.912	212
770.986	206
777.055	194
783.117	242
789.173	306
795.222	348
801.265	274
807.302	184
813.333	156
819.357	124
825.376	112
831.387	116
837.392	140
843.392	156
849.386	128
855.372	128
861.353	126
867.328	132
873.296	128
879.258	124
885.214	120
891.164	114
897.108	120
903.046	138
908.977	130
914.903	112
920.822	102
926.735	92
932.643	98
938.543	94
944.439	106
950.328	98
956.21	100
962.088	120
967.958	130
973.824	134
979.682	176
985.534	272
991.382	802
997.222	1250
1003.06	2854
1008.89	454
1014.71	194
1020.53	210
1026.34	500
1032.14	898
1037.94	416
1043.73	212
1049.52	168
1055.3	142
1061.08	154
1066.85	166
1072.61	172
1078.37	178
1084.12	150
1089.87	158
1095.61	162
1101.34	166
1107.07	144
1112.8	130
1118.51	112
1124.22	112
1129.93	102
1135.63	116
1141.32	136
1147.01	180
1152.69	366
1158.37	346
1164.04	218
1169.71	224
1175.37	324
1181.02	514
1186.67	466
1192.31	484
1197.95	500
1203.58	436
1209.2	308
1214.82	226
1220.44	212
1226.05	186
1231.65	192
1237.25	176
1242.84	172
1248.42	156
1254	162
1259.58	172
1265.15	168
1270.71	178
1276.27	176
1281.82	186
1287.37	178
1292.91	204
1298.45	200
1303.98	226
1309.5	236
1315.02	252
1320.53	268
1326.04	298
1331.54	304
1337.04	286
1342.53	288
1348.02	272
1353.5	264
1358.98	288
1364.45	280
1369.91	288
1375.37	282
1380.82	276
1386.27	256
1391.71	256
1397.15	234
1402.58	218
1408.01	230
1413.43	226
1418.85	218
1424.26	234
1429.66	224
1435.06	254
1440.46	288
1445.85	344
1451.23	344
1456.61	276
1461.98	222
1467.35	192
1472.71	186
1478.07	194
1483.42	178
1488.77	174
1494.11	194
1499.45	170
1504.78	166
1510.11	164
1515.43	178
1520.74	170
1526.05	168
1531.36	166
1536.66	174
1541.95	162
1547.24	166
1552.52	160
1557.8	172
1563.08	176
1568.35	172
1573.61	194
1578.87	282
1584.12	414
1589.37	232
1594.61	322
1599.85	608
1605.08	584
1610.31	274
1615.53	190
1620.75	174
1625.96	158
1631.17	154
1636.37	154
1641.57	156
1646.76	158
1651.95	132
1657.13	140
1662.31	134
1667.48	138
1672.65	124
1677.81	132
1682.97	120
1688.12	132
1693.27	126
1698.41	124
1702.26	110