Folder: NRC_SU25_Spectral_Classification/Mixture_Classification/Jesse_Dataset_v2/Pure Raman/Polystyrene/633nm (part 6)

File: ps-ppo-7jan25-1,0000-map3_Y08_X04.txt
182.393	1082
192.79	964
203.174	988
213.542	1074
223.897	1098
234.238	858
244.566	578
254.878	418
265.178	384
275.463	370
285.734	330
295.992	286
306.236	276
316.467	264
326.684	284
336.887	272
347.075	258
357.251	248
367.413	240
377.562	270
387.697	298
397.819	310
407.926	384
418.02	314
428.101	268
438.169	244
448.223	262
458.264	230
468.291	216
478.306	202
488.307	194
498.294	208
508.269	222
518.23	234
528.177	234
538.113	256
548.034	286
557.942	272
567.838	260
577.72	278
587.589	236
597.446	234
607.289	284
617.119	484
626.936	522
636.741	252
646.533	194
656.313	182
666.078	182
675.831	198
685.571	202
695.299	204
705.014	240
714.716	228
724.406	328
734.082	298
743.746	430
753.398	428
763.037	512
772.664	448
782.278	494
791.879	690
801.467	652
811.044	430
820.608	350
830.16	302
839.699	362
849.226	358
858.741	312
868.243	354
877.731	316
887.209	304
896.674	328
906.128	384
915.569	318
924.997	308
934.414	286
943.818	286
953.211	306
962.59	334
971.958	346
981.314	486
990.659	1172
999.99	4306
1009.31	1654
1018.62	492
1027.91	1248
1037.2	1426
1046.47	516
1055.73	454
1064.98	486
1074.22	482
1083.44	458
1092.65	466
1101.86	438
1111.05	386
1120.22	350
1129.39	302
1138.54	330
1147.69	454
1156.82	1026
1165.94	542
1175.05	690
1184.14	1196
1193.23	1152
1202.3	1218
1211.36	740
1220.41	476
1229.45	442
1238.48	388
1247.5	410
1256.5	392
1265.49	382
1274.48	386
1283.45	394
1292.41	408
1301.36	436
1310.29	474
1319.22	502
1328.13	576
1337.04	516
1345.93	422
1354.81	366
1363.68	424
1372.54	426
1381.38	372
1390.22	298
1399.05	286
1407.86	304
1416.66	292
1425.46	282
1434.24	354
1443.01	508
1451.77	634
1460.52	392
1469.25	300
1477.98	296
1486.7	298
1495.4	328
1504.1	282
1512.78	280
1521.45	274
1530.11	282
1538.76	278
1547.41	294
1556.03	286
1564.65	354
1573.26	386
1581.86	834
1590.45	590
1599.02	1272
1607.59	1304
1616.14	476
1624.69	388
1633.22	332
1641.75	358
1650.26	334
1658.76	294
1667.26	300
1675.74	274
1684.21	310
1692.67	304
1701.12	294
1709.56	288
1717.99	282
1726.41	290
1734.82	294
1743.22	274
1751.61	286
1759.99	266
1768.36	288
1776.71	278
1785.06	288
1793.4	276
1801.73	292
1810.04	312
1818.35	306
1826.65	308
1834.94	276
1843.21	310
1851.48	286
1859.74	300
1867.98	294
1876.22	296
1884.45	300
1892.67	302
1900.87	326
1909.07	308
1917.26	328
1925.43	308
1933.6	322
1941.76	318
1949.91	300
1958.05	310
1966.17	306
1974.29	300
1982.4	310
1990.5	326
1998.59	302
2006.67	310
2014.74	324
2022.8	292
2030.85	320
2038.89	314
2046.92	320
2054.94	324
2062.95	324
2070.96	316
2078.95	286
2086.93	330
2094.91	334
2102.87	328
2110.83	322
2118.77	296
2126.71	334
2134.63	316
2142.55	310
2150.46	326
2158.35	324
2166.24	334
2174.12	338
2181.99	330
2189.85	326
2197.7	342
2205.55	344
2213.38	320
2221.2	346
2229.02	332
2236.82	326
2244.62	324
2252.4	340
2260.18	352
2267.95	336
2275.71	348
2283.46	338
2291.2	324
2298.93	350
2306.65	350
2314.37	354
2322.07	338
2329.77	340
2337.45	346
2345.13	350
2352.8	334
2360.46	334
2368.11	328
2375.75	320
2383.38	344
2391.01	330
2398.62	364
2406.23	342
2413.82	344
2421.41	340
2428.99	352
2436.56	358
2444.12	354
2449.79	360

File: ps-ppo-7jan25-1,0000-map3_Y08_X05.txt
182.393	1078
192.79	1010
203.174	1006
213.542	1086
223.897	1112
234.238	878
244.566	530
254.878	402
265.178	374
275.463	370
285.734	332
295.992	284
306.236	272
316.467	270
326.684	276
336.887	272
347.075	258
357.251	236
367.413	270
377.562	242
387.697	302
397.819	304
407.926	374
418.02	308
428.101	242
438.169	254
448.223	236
458.264	202
468.291	220
478.306	192
488.307	196
498.294	214
508.269	214
518.23	212
528.177	248
538.113	270
548.034	282
557.942	258
567.838	256
577.72	272
587.589	228
597.446	230
607.289	278
617.119	444
626.936	540
636.741	228
646.533	210
656.313	182
666.078	178
675.831	184
685.571	184
695.299	178
705.014	228
714.716	222
724.406	298
734.082	276
743.746	406
753.398	426
763.037	464
772.664	446
782.278	458
791.879	668
801.467	614
811.044	400
820.608	312
830.16	268
839.699	356
849.226	358
858.741	308
868.243	302
877.731	318
887.209	280
896.674	322
906.128	374
915.569	314
924.997	268
934.414	278
943.818	290
953.211	288
962.59	328
971.958	346
981.314	468
990.659	1206
999.99	4224
1009.31	1568
1018.62	496
1027.91	1206
1037.2	1448
1046.47	532
1055.73	414
1064.98	472
1074.22	466
1083.44	452
1092.65	450
1101.86	418
1111.05	386
1120.22	322
1129.39	324
1138.54	354
1147.69	450
1156.82	1004
1165.94	540
1175.05	650
1184.14	1242
1193.23	1190
1202.3	1230
1211.36	754
1220.41	510
1229.45	440
1238.48	428
1247.5	382
1256.5	386
1265.49	378
1274.48	344
1283.45	404
1292.41	386
1301.36	426
1310.29	438
1319.22	482
1328.13	542
1337.04	498
1345.93	430
1354.81	406
1363.68	388
1372.54	410
1381.38	352
1390.22	298
1399.05	286
1407.86	274
1416.66	284
1425.46	260
1434.24	360
1443.01	504
1451.77	634
1460.52	382
1469.25	300
1477.98	300
1486.7	292
1495.4	334
1504.1	264
1512.78	286
1521.45	274
1530.11	288
1538.76	276
1547.41	284
1556.03	288
1564.65	314
1573.26	378
1581.86	830
1590.45	592
1599.02	1236
1607.59	1296
1616.14	488
1624.69	338
1633.22	342
1641.75	346
1650.26	334
1658.76	296
1667.26	280
1675.74	278
1684.21	288
1692.67	298
1701.12	280
1709.56	286
1717.99	288
1726.41	276
1734.82	284
1743.22	284
1751.61	274
1759.99	294
1768.36	290
1776.71	302
1785.06	292
1793.4	292
1801.73	298
1810.04	296
1818.35	296
1826.65	300
1834.94	268
1843.21	308
1851.48	304
1859.74	298
1867.98	282
1876.22	282
1884.45	294
1892.67	290
1900.87	278
1909.07	290
1917.26	304
1925.43	294
1933.6	308
1941.76	308
1949.91	308
1958.05	296
1966.17	302
1974.29	304
1982.4	302
1990.5	292
1998.59	284
2006.67	290
2014.74	284
2022.8	302
2030.85	296
2038.89	312
2046.92	312
2054.94	316
2062.95	296
2070.96	298
2078.95	308
2086.93	310
2094.91	312
2102.87	326
2110.83	306
2118.77	310
2126.71	304
2134.63	312
2142.55	308
2150.46	308
2158.35	302
2166.24	318
2174.12	312
2181.99	318
2189.85	320
2197.7	324
2205.55	320
2213.38	328
2221.2	326
2229.02	324
2236.82	344
2244.62	312
2252.4	310
2260.18	338
2267.95	324
2275.71	358
2283.46	318
2291.2	330
2298.93	322
2306.65	348
2314.37	330
2322.07	322
2329.77	334
2337.45	326
2345.13	326
2352.8	344
2360.46	352
2368.11	336
2375.75	330
2383.38	334
2391.01	338
2398.62	366
2406.23	350
2413.82	350
2421.41	344
2428.99	344
2436.56	346
2444.12	354
2449.79	380

File: ps-ppo-7jan25-1,0000-map3_Y08_X06.txt
182.393	1044
192.79	952
203.174	966
213.542	1044
223.897	1080
234.238	830
244.566	542
254.878	382
265.178	340
275.463	308
285.734	300
295.992	266
306.236	236
316.467	242
326.684	234
336.887	228
347.075	224
357.251	222
367.413	228
377.562	252
387.697	256
397.819	270
407.926	378
418.02	284
428.101	260
438.169	218
448.223	218
458.264	194
468.291	186
478.306	174
488.307	192
498.294	190
508.269	214
518.23	202
528.177	228
538.113	244
548.034	252
557.942	260
567.838	248
577.72	254
587.589	198
597.446	204
607.289	268
617.119	436
626.936	526
636.741	232
646.533	190
656.313	180
666.078	186
675.831	184
685.571	186
695.299	178
705.014	204
714.716	244
724.406	300
734.082	286
743.746	388
753.398	416
763.037	482
772.664	434
782.278	466
791.879	660
801.467	604
811.044	396
820.608	314
830.16	284
839.699	374
849.226	340
858.741	320
868.243	308
877.731	314
887.209	300
896.674	306
906.128	388
915.569	306
924.997	270
934.414	280
943.818	276
953.211	274
962.59	326
971.958	330
981.314	486
990.659	1174
999.99	4320
1009.31	1528
1018.62	496
1027.91	1178
1037.2	1462
1046.47	508
1055.73	412
1064.98	432
1074.22	446
1083.44	440
1092.65	436
1101.86	426
1111.05	380
1120.22	294
1129.39	280
1138.54	300
1147.69	412
1156.82	992
1165.94	508
1175.05	622
1184.14	1228
1193.23	1160
1202.3	1146
1211.36	768
1220.41	500
1229.45	430
1238.48	386
1247.5	360
1256.5	360
1265.49	354
1274.48	356
1283.45	348
1292.41	374
1301.36	410
1310.29	432
1319.22	504
1328.13	554
1337.04	488
1345.93	388
1354.81	374
1363.68	356
1372.54	390
1381.38	340
1390.22	288
1399.05	280
1407.86	290
1416.66	250
1425.46	276
1434.24	320
1443.01	500
1451.77	620
1460.52	382
1469.25	284
1477.98	278
1486.7	272
1495.4	306
1504.1	284
1512.78	254
1521.45	264
1530.11	266
1538.76	270
1547.41	288
1556.03	278
1564.65	318
1573.26	384
1581.86	826
1590.45	576
1599.02	1268
1607.59	1264
1616.14	490
1624.69	350
1633.22	316
1641.75	328
1650.26	356
1658.76	298
1667.26	298
1675.74	280
1684.21	278
1692.67	292
1701.12	254
1709.56	284
1717.99	268
1726.41	274
1734.82	286
1743.22	274
1751.61	274
1759.99	274
1768.36	274
1776.71	290
1785.06	280
1793.4	276
1801.73	268
1810.04	292
1818.35	288
1826.65	280
1834.94	306
1843.21	298
1851.48	308
1859.74	290
1867.98	284
1876.22	276
1884.45	294
1892.67	310
1900.87	288
1909.07	296
1917.26	306
1925.43	288
1933.6	290
1941.76	284
1949.91	298
1958.05	294
1966.17	300
1974.29	318
1982.4	310
1990.5	308
1998.59	308
2006.67	300
2014.74	314
2022.8	328
2030.85	314
2038.89	316
2046.92	328
2054.94	310
2062.95	324
2070.96	306
2078.95	292
2086.93	318
2094.91	304
2102.87	308
2110.83	340
2118.77	326
2126.71	322
2134.63	340
2142.55	332
2150.46	354
2158.35	312
2166.24	338
2174.12	348
2181.99	322
2189.85	320
2197.7	336
2205.55	348
2213.38	320
2221.2	324
2229.02	362
2236.82	338
2244.62	330
2252.4	342
2260.18	342
2267.95	332
2275.71	332
2283.46	322
2291.2	334
2298.93	342
2306.65	334
2314.37	356
2322.07	334
2329.77	340
2337.45	340
2345.13	350
2352.8	338
2360.46	334
2368.11	344
2375.75	354
2383.38	354
2391.01	342
2398.62	326
2406.23	344
2413.82	338
2421.41	358
2428.99	342
2436.56	368
2444.12	366
2449.79	358

File: ps-ppo-7jan25-1,0000-map3_Y08_X07.txt
182.393	1114
192.79	1044
203.174	1064
213.542	1114
223.897	1134
234.238	904
244.566	572
254.878	444
265.178	412
275.463	392
285.734	340
295.992	312
306.236	314
316.467	290
326.684	304
336.887	290
347.075	286
357.251	288
367.413	268
377.562	280
387.697	332
397.819	352
407.926	398
418.02	346
428.101	304
438.169	280
448.223	252
458.264	218
468.291	220
478.306	232
488.307	226
498.294	220
508.269	230
518.23	240
528.177	272
538.113	280
548.034	318
557.942	280
567.838	284
577.72	276
587.589	248
597.446	252
607.289	302
617.119	440
626.936	586
636.741	248
646.533	218
656.313	200
666.078	200
675.831	210
685.571	192
695.299	194
705.014	234
714.716	240
724.406	324
734.082	338
743.746	410
753.398	406
763.037	512
772.664	468
782.278	502
791.879	686
801.467	654
811.044	428
820.608	310
830.16	304
839.699	384
849.226	372
858.741	316
868.243	330
877.731	322
887.209	316
896.674	314
906.128	396
915.569	330
924.997	300
934.414	268
943.818	292
953.211	298
962.59	310
971.958	372
981.314	514
990.659	1232
999.99	4314
1009.31	1570
1018.62	488
1027.91	1226
1037.2	1442
1046.47	548
1055.73	412
1064.98	470
1074.22	474
1083.44	478
1092.65	490
1101.86	486
1111.05	400
1120.22	338
1129.39	338
1138.54	342
1147.69	472
1156.82	1020
1165.94	564
1175.05	640
1184.14	1212
1193.23	1180
1202.3	1226
1211.36	774
1220.41	540
1229.45	488
1238.48	422
1247.5	420
1256.5	400
1265.49	384
1274.48	378
1283.45	386
1292.41	416
1301.36	448
1310.29	486
1319.22	510
1328.13	558
1337.04	550
1345.93	414
1354.81	412
1363.68	422
1372.54	430
1381.38	354
1390.22	294
1399.05	302
1407.86	318
1416.66	306
1425.46	296
1434.24	370
1443.01	532
1451.77	648
1460.52	436
1469.25	326
1477.98	312
1486.7	308
1495.4	332
1504.1	298
1512.78	320
1521.45	296
1530.11	292
1538.76	316
1547.41	306
1556.03	324
1564.65	326
1573.26	414
1581.86	816
1590.45	668
1599.02	1226
1607.59	1262
1616.14	498
1624.69	376
1633.22	342
1641.75	360
1650.26	364
1658.76	318
1667.26	308
1675.74	320
1684.21	316
1692.67	304
1701.12	306
1709.56	298
1717.99	302
1726.41	302
1734.82	280
1743.22	318
1751.61	312
1759.99	316
1768.36	284
1776.71	300
1785.06	302
1793.4	314
1801.73	300
1810.04	314
1818.35	306
1826.65	306
1834.94	294
1843.21	308
1851.48	302
1859.74	302
1867.98	300
1876.22	320
1884.45	332
1892.67	296
1900.87	296
1909.07	328
1917.26	322
1925.43	322
1933.6	314
1941.76	340
1949.91	302
1958.05	320
1966.17	324
1974.29	314
1982.4	314
1990.5	336
1998.59	302
2006.67	316
2014.74	328
2022.8	328
2030.85	322
2038.89	320
2046.92	314
2054.94	324
2062.95	352
2070.96	330
2078.95	320
2086.93	318
2094.91	322
2102.87	338
2110.83	344
2118.77	356
2126.71	348
2134.63	330
2142.55	338
2150.46	362
2158.35	354
2166.24	330
2174.12	360
2181.99	334
2189.85	368
2197.7	350
2205.55	358
2213.38	340
2221.2	350
2229.02	346
2236.82	336
2244.62	324
2252.4	352
2260.18	338
2267.95	348
2275.71	364
2283.46	364
2291.2	338
2298.93	358
2306.65	340
2314.37	374
2322.07	360
2329.77	340
2337.45	344
2345.13	352
2352.8	348
2360.46	340
2368.11	358
2375.75	342
2383.38	368
2391.01	344
2398.62	362
2406.23	338
2413.82	346
2421.41	354
2428.99	376
2436.56	364
2444.12	384
2449.79	382

File: ps-ppo-7jan25-1,0000-map3_Y08_X09.txt
182.393	1044
192.79	954
203.174	952
213.542	1030
223.897	1076
234.238	848
244.566	526
254.878	384
265.178	320
275.463	324
285.734	296
295.992	248
306.236	222
316.467	250
326.684	238
336.887	232
347.075	232
357.251	228
367.413	222
377.562	232
387.697	278
397.819	306
407.926	362
418.02	286
428.101	244
438.169	218
448.223	218
458.264	194
468.291	192
478.306	178
488.307	178
498.294	192
508.269	208
518.23	214
528.177	208
538.113	248
548.034	250
557.942	250
567.838	252
577.72	256
587.589	214
597.446	224
607.289	264
617.119	408
626.936	514
636.741	220
646.533	192
656.313	172
666.078	164
675.831	178
685.571	192
695.299	188
705.014	224
714.716	210
724.406	308
734.082	278
743.746	348
753.398	396
763.037	470
772.664	430
782.278	456
791.879	648
801.467	606
811.044	400
820.608	296
830.16	272
839.699	336
849.226	350
858.741	286
868.243	312
877.731	308
887.209	290
896.674	286
906.128	360
915.569	306
924.997	258
934.414	262
943.818	268
953.211	272
962.59	306
971.958	340
981.314	480
990.659	1202
999.99	4274
1009.31	1584
1018.62	460
1027.91	1176
1037.2	1444
1046.47	492
1055.73	404
1064.98	428
1074.22	458
1083.44	426
1092.65	420
1101.86	436
1111.05	360
1120.22	308
1129.39	292
1138.54	294
1147.69	402
1156.82	966
1165.94	518
1175.05	640
1184.14	1216
1193.23	1126
1202.3	1136
1211.36	716
1220.41	484
1229.45	418
1238.48	366
1247.5	368
1256.5	352
1265.49	366
1274.48	344
1283.45	346
1292.41	380
1301.36	430
1310.29	418
1319.22	472
1328.13	530
1337.04	474
1345.93	414
1354.81	366
1363.68	386
1372.54	400
1381.38	338
1390.22	292
1399.05	288
1407.86	280
1416.66	284
1425.46	250
1434.24	352
1443.01	462
1451.77	608
1460.52	388
1469.25	312
1477.98	280
1486.7	280
1495.4	296
1504.1	284
1512.78	264
1521.45	266
1530.11	280
1538.76	274
1547.41	282
1556.03	298
1564.65	306
1573.26	390
1581.86	814
1590.45	596
1599.02	1236
1607.59	1288
1616.14	470
1624.69	344
1633.22	362
1641.75	332
1650.26	344
1658.76	300
1667.26	298
1675.74	290
1684.21	290
1692.67	302
1701.12	292
1709.56	294
1717.99	290
1726.41	294
1734.82	282
1743.22	286
1751.61	300
1759.99	256
1768.36	294
1776.71	282
1785.06	300
1793.4	298
1801.73	282
1810.04	282
1818.35	300
1826.65	288
1834.94	294
1843.21	298
1851.48	304
1859.74	300
1867.98	292
1876.22	288
1884.45	304
1892.67	332
1900.87	310
1909.07	308
1917.26	322
1925.43	316
1933.6	322
1941.76	324
1949.91	318
1958.05	328
1966.17	312
1974.29	294
1982.4	302
1990.5	314
1998.59	300
2006.67	330
2014.74	318
2022.8	332
2030.85	328
2038.89	334
2046.92	334
2054.94	330
2062.95	324
2070.96	320
2078.95	330
2086.93	322
2094.91	342
2102.87	318
2110.83	342
2118.77	322
2126.71	336
2134.63	334
2142.55	348
2150.46	330
2158.35	344
2166.24	328
2174.12	322
2181.99	354
2189.85	340
2197.7	338
2205.55	332
2213.38	332
2221.2	324
2229.02	338
2236.82	332
2244.62	334
2252.4	348
2260.18	356
2267.95	334
2275.71	336
2283.46	354
2291.2	346
2298.93	342
2306.65	350
2314.37	350
2322.07	380
2329.77	314
2337.45	364
2345.13	356
2352.8	348
2360.46	362
2368.11	356
2375.75	356
2383.38	338
2391.01	346
2398.62	334
2406.23	348
2413.82	320
2421.41	372
2428.99	374
2436.56	354
2444.12	350
2449.79	386

File: ps-ppo-7jan25-1,0000-map3_Y09_X00.txt
182.393	1030
192.79	958
203.174	974
213.542	1080
223.897	1122
234.238	864
244.566	548
254.878	402
265.178	382
275.463	346
285.734	320
295.992	270
306.236	264
316.467	266
326.684	264
336.887	274
347.075	250
357.251	256
367.413	264
377.562	270
387.697	300
397.819	318
407.926	370
418.02	314
428.101	276
438.169	262
448.223	256
458.264	210
468.291	214
478.306	220
488.307	216
498.294	222
508.269	226
518.23	218
528.177	254
538.113	284
548.034	296
557.942	282
567.838	278
577.72	296
587.589	244
597.446	274
607.289	318
617.119	462
626.936	558
636.741	240
646.533	210
656.313	226
666.078	200
675.831	196
685.571	206
695.299	232
705.014	242
714.716	236
724.406	336
734.082	330
743.746	442
753.398	460
763.037	536
772.664	474
782.278	512
791.879	676
801.467	660
811.044	424
820.608	362
830.16	306
839.699	404
849.226	404
858.741	324
868.243	360
877.731	350
887.209	332
896.674	342
906.128	404
915.569	358
924.997	316
934.414	302
943.818	334
953.211	336
962.59	378
971.958	380
981.314	542
990.659	1218
999.99	4354
1009.31	1632
1018.62	522
1027.91	1228
1037.2	1480
1046.47	542
1055.73	476
1064.98	490
1074.22	510
1083.44	496
1092.65	480
1101.86	484
1111.05	406
1120.22	368
1129.39	328
1138.54	356
1147.69	494
1156.82	1028
1165.94	562
1175.05	724
1184.14	1284
1193.23	1212
1202.3	1222
1211.36	790
1220.41	552
1229.45	516
1238.48	448
1247.5	414
1256.5	410
1265.49	394
1274.48	418
1283.45	416
1292.41	424
1301.36	490
1310.29	508
1319.22	522
1328.13	604
1337.04	546
1345.93	478
1354.81	388
1363.68	434
1372.54	450
1381.38	420
1390.22	338
1399.05	338
1407.86	342
1416.66	304
1425.46	294
1434.24	374
1443.01	528
1451.77	662
1460.52	412
1469.25	334
1477.98	326
1486.7	326
1495.4	354
1504.1	324
1512.78	318
1521.45	302
1530.11	298
1538.76	304
1547.41	312
1556.03	340
1564.65	320
1573.26	430
1581.86	828
1590.45	638
1599.02	1258
1607.59	1356
1616.14	514
1624.69	378
1633.22	354
1641.75	360
1650.26	364
1658.76	342
1667.26	310
1675.74	308
1684.21	330
1692.67	316
1701.12	312
1709.56	326
1717.99	302
1726.41	294
1734.82	342
1743.22	302
1751.61	304
1759.99	288
1768.36	320
1776.71	322
1785.06	296
1793.4	314
1801.73	302
1810.04	328
1818.35	304
1826.65	316
1834.94	290
1843.21	296
1851.48	312
1859.74	300
1867.98	326
1876.22	292
1884.45	300
1892.67	338
1900.87	314
1909.07	344
1917.26	324
1925.43	324
1933.6	336
1941.76	338
1949.91	334
1958.05	312
1966.17	340
1974.29	320
1982.4	312
1990.5	322
1998.59	328
2006.67	340
2014.74	310
2022.8	322
2030.85	330
2038.89	330
2046.92	342
2054.94	330
2062.95	318
2070.96	334
2078.95	326
2086.93	338
2094.91	318
2102.87	338
2110.83	328
2118.77	340
2126.71	344
2134.63	350
2142.55	338
2150.46	354
2158.35	338
2166.24	348
2174.12	328
2181.99	340
2189.85	342
2197.7	350
2205.55	342
2213.38	344
2221.2	362
2229.02	344
2236.82	344
2244.62	358
2252.4	348
2260.18	356
2267.95	342
2275.71	338
2283.46	350
2291.2	336
2298.93	358
2306.65	348
2314.37	344
2322.07	362
2329.77	360
2337.45	360
2345.13	364
2352.8	354
2360.46	352
2368.11	356
2375.75	354
2383.38	378
2391.01	366
2398.62	364
2406.23	372
2413.82	354
2421.41	358
2428.99	384
2436.56	376
2444.12	386
2449.79	362

File: ps-ppo-7jan25-1,0000-map3_Y09_X01.txt
182.393	1124
192.79	1042
203.174	1038
213.542	1108
223.897	1158
234.238	894
244.566	574
254.878	450
265.178	398
275.463	380
285.734	352
295.992	328
306.236	296
316.467	324
326.684	294
336.887	298
347.075	300
357.251	266
367.413	276
377.562	282
387.697	318
397.819	350
407.926	404
418.02	352
428.101	296
438.169	282
448.223	262
458.264	248
468.291	242
478.306	242
488.307	218
498.294	226
508.269	252
518.23	242
528.177	250
538.113	298
548.034	290
557.942	292
567.838	294
577.72	278
587.589	254
597.446	272
607.289	316
617.119	462
626.936	588
636.741	258
646.533	222
656.313	198
666.078	222
675.831	222
685.571	210
695.299	210
705.014	258
714.716	258
724.406	334
734.082	314
743.746	426
753.398	484
763.037	534
772.664	480
782.278	520
791.879	704
801.467	660
811.044	432
820.608	350
830.16	298
839.699	414
849.226	372
858.741	340
868.243	336
877.731	340
887.209	324
896.674	342
906.128	416
915.569	358
924.997	324
934.414	306
943.818	304
953.211	350
962.59	370
971.958	390
981.314	514
990.659	1232
999.99	4280
1009.31	1644
1018.62	554
1027.91	1294
1037.2	1514
1046.47	554
1055.73	480
1064.98	534
1074.22	492
1083.44	496
1092.65	490
1101.86	496
1111.05	416
1120.22	388
1129.39	346
1138.54	374
1147.69	478
1156.82	1046
1165.94	614
1175.05	668
1184.14	1290
1193.23	1204
1202.3	1224
1211.36	790
1220.41	558
1229.45	494
1238.48	444
1247.5	432
1256.5	414
1265.49	414
1274.48	402
1283.45	406
1292.41	424
1301.36	472
1310.29	490
1319.22	524
1328.13	558
1337.04	534
1345.93	464
1354.81	394
1363.68	422
1372.54	434
1381.38	378
1390.22	332
1399.05	332
1407.86	314
1416.66	324
1425.46	296
1434.24	364
1443.01	520
1451.77	608
1460.52	414
1469.25	316
1477.98	292
1486.7	314
1495.4	334
1504.1	296
1512.78	310
1521.45	294
1530.11	322
1538.76	288
1547.41	306
1556.03	326
1564.65	330
1573.26	410
1581.86	828
1590.45	634
1599.02	1246
1607.59	1352
1616.14	500
1624.69	384
1633.22	356
1641.75	346
1650.26	348
1658.76	332
1667.26	306
1675.74	320
1684.21	310
1692.67	302
1701.12	336
1709.56	296
1717.99	304
1726.41	318
1734.82	308
1743.22	296
1751.61	304
1759.99	308
1768.36	306
1776.71	306
1785.06	312
1793.4	302
1801.73	318
1810.04	314
1818.35	296
1826.65	324
1834.94	314
1843.21	310
1851.48	312
1859.74	318
1867.98	308
1876.22	332
1884.45	298
1892.67	318
1900.87	314
1909.07	330
1917.26	322
1925.43	326
1933.6	308
1941.76	324
1949.91	334
1958.05	310
1966.17	308
1974.29	324
1982.4	332
1990.5	314
1998.59	334
2006.67	314
2014.74	328
2022.8	322
2030.85	316
2038.89	324
2046.92	334
2054.94	334
2062.95	330
2070.96	336
2078.95	320
2086.93	326
2094.91	330
2102.87	328
2110.83	328
2118.77	336
2126.71	328
2134.63	330
2142.55	334
2150.46	338
2158.35	348
2166.24	346
2174.12	340
2181.99	324
2189.85	346
2197.7	342
2205.55	344
2213.38	334
2221.2	346
2229.02	332
2236.82	338
2244.62	334
2252.4	344
2260.18	336
2267.95	346
2275.71	338
2283.46	342
2291.2	354
2298.93	338
2306.65	356
2314.37	352
2322.07	344
2329.77	344
2337.45	352
2345.13	350
2352.8	346
2360.46	346
2368.11	340
2375.75	372
2383.38	344
2391.01	354
2398.62	356
2406.23	352
2413.82	374
2421.41	350
2428.99	366
2436.56	358
2444.12	360
2449.79	348

File: ps-ppo-7jan25-1,0000-map3_Y09_X02.txt
182.393	992
192.79	924
203.174	926
213.542	1032
223.897	1112
234.238	812
244.566	514
254.878	352
265.178	324
275.463	318
285.734	284
295.992	244
306.236	224
316.467	230
326.684	238
336.887	224
347.075	216
357.251	216
367.413	206
377.562	232
387.697	254
397.819	276
407.926	332
418.02	288
428.101	228
438.169	216
448.223	208
458.264	170
468.291	186
478.306	164
488.307	178
498.294	168
508.269	192
518.23	182
528.177	202
538.113	258
548.034	236
557.942	236
567.838	240
577.72	232
587.589	202
597.446	218
607.289	252
617.119	412
626.936	534
636.741	216
646.533	170
656.313	172
666.078	164
675.831	148
685.571	168
695.299	168
705.014	204
714.716	208
724.406	278
734.082	282
743.746	370
753.398	406
763.037	484
772.664	408
782.278	456
791.879	642
801.467	632
811.044	396
820.608	288
830.16	242
839.699	344
849.226	334
858.741	292
868.243	300
877.731	278
887.209	274
896.674	282
906.128	350
915.569	298
924.997	236
934.414	234
943.818	254
953.211	260
962.59	308
971.958	296
981.314	464
990.659	1154
999.99	4158
1009.31	1558
1018.62	452
1027.91	1168
1037.2	1388
1046.47	494
1055.73	392
1064.98	414
1074.22	424
1083.44	430
1092.65	408
1101.86	410
1111.05	334
1120.22	306
1129.39	264
1138.54	278
1147.69	408
1156.82	970
1165.94	504
1175.05	602
1184.14	1208
1193.23	1148
1202.3	1158
1211.36	702
1220.41	456
1229.45	406
1238.48	376
1247.5	364
1256.5	356
1265.49	340
1274.48	334
1283.45	340
1292.41	384
1301.36	406
1310.29	410
1319.22	460
1328.13	524
1337.04	468
1345.93	392
1354.81	350
1363.68	370
1372.54	370
1381.38	326
1390.22	282
1399.05	268
1407.86	280
1416.66	258
1425.46	276
1434.24	310
1443.01	472
1451.77	606
1460.52	366
1469.25	274
1477.98	262
1486.7	252
1495.4	304
1504.1	254
1512.78	256
1521.45	256
1530.11	270
1538.76	268
1547.41	272
1556.03	286
1564.65	332
1573.26	348
1581.86	784
1590.45	602
1599.02	1208
1607.59	1278
1616.14	480
1624.69	342
1633.22	294
1641.75	296
1650.26	352
1658.76	294
1667.26	292
1675.74	288
1684.21	300
1692.67	290
1701.12	288
1709.56	282
1717.99	282
1726.41	270
1734.82	294
1743.22	288
1751.61	266
1759.99	290
1768.36	262
1776.71	292
1785.06	280
1793.4	314
1801.73	288
1810.04	278
1818.35	300
1826.65	288
1834.94	296
1843.21	276
1851.48	296
1859.74	288
1867.98	300
1876.22	306
1884.45	308
1892.67	300
1900.87	308
1909.07	306
1917.26	314
1925.43	324
1933.6	320
1941.76	310
1949.91	316
1958.05	316
1966.17	302
1974.29	330
1982.4	328
1990.5	324
1998.59	320
2006.67	318
2014.74	308
2022.8	342
2030.85	324
2038.89	332
2046.92	330
2054.94	316
2062.95	324
2070.96	318
2078.95	350
2086.93	334
2094.91	324
2102.87	318
2110.83	308
2118.77	352
2126.71	324
2134.63	332
2142.55	344
2150.46	336
2158.35	322
2166.24	342
2174.12	348
2181.99	346
2189.85	350
2197.7	326
2205.55	352
2213.38	344
2221.2	330
2229.02	328
2236.82	340
2244.62	334
2252.4	336
2260.18	342
2267.95	332
2275.71	346
2283.46	334
2291.2	346
2298.93	356
2306.65	340
2314.37	346
2322.07	356
2329.77	344
2337.45	336
2345.13	342
2352.8	360
2360.46	340
2368.11	346
2375.75	342
2383.38	366
2391.01	354
2398.62	364
2406.23	348
2413.82	352
2421.41	346
2428.99	360
2436.56	350
2444.12	360
2449.79	372