Folder: NRC_SU25_Spectral_Classification/Mixture_Classification/Jesse_Dataset_v2/Pure Raman/Polystyrene/633nm (part 2)

File: ps-ppo-7jan25-1,0000-map3_Y01_X03.txt
182.393	1052
192.79	980
203.174	980
213.542	1076
223.897	1122
234.238	922
244.566	592
254.878	426
265.178	394
275.463	360
285.734	328
295.992	284
306.236	278
316.467	306
326.684	296
336.887	278
347.075	270
357.251	272
367.413	246
377.562	266
387.697	298
397.819	318
407.926	380
418.02	316
428.101	294
438.169	268
448.223	238
458.264	236
468.291	236
478.306	214
488.307	222
498.294	232
508.269	244
518.23	244
528.177	262
538.113	304
548.034	296
557.942	288
567.838	274
577.72	300
587.589	260
597.446	262
607.289	310
617.119	462
626.936	556
636.741	270
646.533	234
656.313	204
666.078	206
675.831	206
685.571	216
695.299	224
705.014	252
714.716	274
724.406	332
734.082	300
743.746	430
753.398	490
763.037	528
772.664	474
782.278	472
791.879	710
801.467	692
811.044	444
820.608	346
830.16	288
839.699	362
849.226	376
858.741	324
868.243	328
877.731	318
887.209	320
896.674	302
906.128	380
915.569	338
924.997	292
934.414	302
943.818	306
953.211	314
962.59	338
971.958	370
981.314	494
990.659	1200
999.99	4202
1009.31	1598
1018.62	510
1027.91	1220
1037.2	1508
1046.47	550
1055.73	420
1064.98	470
1074.22	450
1083.44	482
1092.65	464
1101.86	462
1111.05	356
1120.22	352
1129.39	324
1138.54	356
1147.69	436
1156.82	1000
1165.94	550
1175.05	688
1184.14	1250
1193.23	1160
1202.3	1204
1211.36	776
1220.41	498
1229.45	476
1238.48	412
1247.5	416
1256.5	380
1265.49	404
1274.48	396
1283.45	394
1292.41	420
1301.36	434
1310.29	458
1319.22	506
1328.13	566
1337.04	532
1345.93	442
1354.81	384
1363.68	410
1372.54	396
1381.38	374
1390.22	304
1399.05	316
1407.86	298
1416.66	284
1425.46	310
1434.24	354
1443.01	508
1451.77	648
1460.52	412
1469.25	328
1477.98	302
1486.7	304
1495.4	336
1504.1	306
1512.78	298
1521.45	304
1530.11	288
1538.76	294
1547.41	322
1556.03	302
1564.65	340
1573.26	392
1581.86	812
1590.45	632
1599.02	1234
1607.59	1320
1616.14	496
1624.69	388
1633.22	330
1641.75	366
1650.26	396
1658.76	332
1667.26	312
1675.74	336
1684.21	332
1692.67	322
1701.12	314
1709.56	318
1717.99	310
1726.41	296
1734.82	308
1743.22	324
1751.61	324
1759.99	300
1768.36	314
1776.71	328
1785.06	328
1793.4	332
1801.73	326
1810.04	322
1818.35	338
1826.65	344
1834.94	340
1843.21	326
1851.48	352
1859.74	340
1867.98	350
1876.22	348
1884.45	332
1892.67	352
1900.87	344
1909.07	380
1917.26	364
1925.43	374
1933.6	384
1941.76	366
1949.91	388
1958.05	396
1966.17	374
1974.29	370
1982.4	406
1990.5	404
1998.59	400
2006.67	416
2014.74	424
2022.8	418
2030.85	432
2038.89	412
2046.92	442
2054.94	436
2062.95	474
2070.96	454
2078.95	490
2086.93	470
2094.91	516
2102.87	488
2110.83	498
2118.77	508
2126.71	502
2134.63	500
2142.55	494
2150.46	506
2158.35	518
2166.24	486
2174.12	520
2181.99	520
2189.85	536
2197.7	540
2205.55	502
2213.38	506
2221.2	524
2229.02	524
2236.82	502
2244.62	524
2252.4	488
2260.18	496
2267.95	476
2275.71	486
2283.46	470
2291.2	472
2298.93	456
2306.65	452
2314.37	496
2322.07	454
2329.77	470
2337.45	464
2345.13	458
2352.8	462
2360.46	448
2368.11	454
2375.75	444
2383.38	454
2391.01	434
2398.62	456
2406.23	416
2413.82	430
2421.41	446
2428.99	456
2436.56	458
2444.12	440
2449.79	430

File: ps-ppo-7jan25-1,0000-map3_Y01_X04.txt
182.393	1028
192.79	956
203.174	964
213.542	1072
223.897	1082
234.238	814
244.566	520
254.878	402
265.178	340
275.463	338
285.734	286
295.992	260
306.236	228
316.467	256
326.684	250
336.887	250
347.075	238
357.251	232
367.413	230
377.562	242
387.697	264
397.819	304
407.926	340
418.02	304
428.101	248
438.169	216
448.223	226
458.264	202
468.291	190
478.306	186
488.307	196
498.294	190
508.269	202
518.23	210
528.177	200
538.113	266
548.034	272
557.942	256
567.838	270
577.72	278
587.589	216
597.446	216
607.289	270
617.119	428
626.936	540
636.741	244
646.533	182
656.313	174
666.078	172
675.831	162
685.571	176
695.299	178
705.014	224
714.716	202
724.406	300
734.082	266
743.746	392
753.398	428
763.037	462
772.664	430
782.278	458
791.879	644
801.467	588
811.044	386
820.608	296
830.16	262
839.699	336
849.226	344
858.741	290
868.243	312
877.731	298
887.209	276
896.674	268
906.128	366
915.569	318
924.997	258
934.414	266
943.818	264
953.211	258
962.59	302
971.958	336
981.314	418
990.659	1174
999.99	4132
1009.31	1608
1018.62	480
1027.91	1178
1037.2	1454
1046.47	466
1055.73	412
1064.98	442
1074.22	442
1083.44	410
1092.65	406
1101.86	432
1111.05	348
1120.22	304
1129.39	288
1138.54	304
1147.69	416
1156.82	974
1165.94	520
1175.05	614
1184.14	1176
1193.23	1138
1202.3	1146
1211.36	690
1220.41	494
1229.45	430
1238.48	392
1247.5	370
1256.5	354
1265.49	364
1274.48	334
1283.45	354
1292.41	374
1301.36	428
1310.29	404
1319.22	466
1328.13	530
1337.04	492
1345.93	400
1354.81	380
1363.68	364
1372.54	370
1381.38	352
1390.22	290
1399.05	274
1407.86	248
1416.66	266
1425.46	280
1434.24	338
1443.01	480
1451.77	574
1460.52	388
1469.25	300
1477.98	290
1486.7	278
1495.4	302
1504.1	270
1512.78	278
1521.45	278
1530.11	250
1538.76	264
1547.41	268
1556.03	298
1564.65	306
1573.26	360
1581.86	802
1590.45	608
1599.02	1230
1607.59	1306
1616.14	478
1624.69	368
1633.22	324
1641.75	314
1650.26	350
1658.76	300
1667.26	306
1675.74	278
1684.21	302
1692.67	292
1701.12	282
1709.56	298
1717.99	268
1726.41	288
1734.82	268
1743.22	282
1751.61	286
1759.99	292
1768.36	286
1776.71	304
1785.06	280
1793.4	292
1801.73	304
1810.04	276
1818.35	292
1826.65	304
1834.94	280
1843.21	280
1851.48	298
1859.74	284
1867.98	294
1876.22	300
1884.45	290
1892.67	290
1900.87	290
1909.07	300
1917.26	294
1925.43	318
1933.6	312
1941.76	324
1949.91	312
1958.05	290
1966.17	298
1974.29	310
1982.4	326
1990.5	298
1998.59	308
2006.67	298
2014.74	326
2022.8	308
2030.85	314
2038.89	320
2046.92	316
2054.94	322
2062.95	314
2070.96	332
2078.95	310
2086.93	316
2094.91	326
2102.87	318
2110.83	320
2118.77	312
2126.71	322
2134.63	310
2142.55	330
2150.46	310
2158.35	326
2166.24	326
2174.12	326
2181.99	316
2189.85	326
2197.7	320
2205.55	344
2213.38	338
2221.2	330
2229.02	342
2236.82	338
2244.62	332
2252.4	340
2260.18	334
2267.95	312
2275.71	342
2283.46	346
2291.2	336
2298.93	326
2306.65	352
2314.37	362
2322.07	320
2329.77	336
2337.45	354
2345.13	362
2352.8	356
2360.46	340
2368.11	346
2375.75	342
2383.38	358
2391.01	348
2398.62	346
2406.23	336
2413.82	348
2421.41	346
2428.99	346
2436.56	340
2444.12	366
2449.79	346

File: ps-ppo-7jan25-1,0000-map3_Y01_X05.txt
182.393	1032
192.79	920
203.174	952
213.542	1072
223.897	1088
234.238	844
244.566	538
254.878	394
265.178	356
275.463	322
285.734	302
295.992	260
306.236	236
316.467	248
326.684	250
336.887	256
347.075	228
357.251	220
367.413	228
377.562	250
387.697	264
397.819	270
407.926	352
418.02	298
428.101	252
438.169	242
448.223	234
458.264	198
468.291	200
478.306	182
488.307	192
498.294	188
508.269	206
518.23	212
528.177	218
538.113	256
548.034	264
557.942	268
567.838	260
577.72	254
587.589	226
597.446	224
607.289	268
617.119	400
626.936	522
636.741	230
646.533	184
656.313	166
666.078	168
675.831	162
685.571	174
695.299	190
705.014	224
714.716	226
724.406	302
734.082	280
743.746	356
753.398	420
763.037	484
772.664	422
782.278	456
791.879	604
801.467	636
811.044	390
820.608	300
830.16	268
839.699	372
849.226	348
858.741	300
868.243	298
877.731	302
887.209	288
896.674	284
906.128	342
915.569	292
924.997	262
934.414	242
943.818	256
953.211	264
962.59	312
971.958	320
981.314	448
990.659	1170
999.99	4134
1009.31	1584
1018.62	460
1027.91	1168
1037.2	1424
1046.47	476
1055.73	382
1064.98	416
1074.22	426
1083.44	440
1092.65	408
1101.86	432
1111.05	348
1120.22	304
1129.39	270
1138.54	298
1147.69	422
1156.82	972
1165.94	536
1175.05	640
1184.14	1198
1193.23	1124
1202.3	1164
1211.36	728
1220.41	486
1229.45	432
1238.48	356
1247.5	366
1256.5	340
1265.49	360
1274.48	342
1283.45	368
1292.41	394
1301.36	418
1310.29	444
1319.22	494
1328.13	512
1337.04	482
1345.93	398
1354.81	370
1363.68	392
1372.54	400
1381.38	358
1390.22	300
1399.05	286
1407.86	286
1416.66	276
1425.46	274
1434.24	334
1443.01	512
1451.77	606
1460.52	384
1469.25	318
1477.98	292
1486.7	308
1495.4	300
1504.1	276
1512.78	274
1521.45	298
1530.11	294
1538.76	282
1547.41	286
1556.03	294
1564.65	318
1573.26	416
1581.86	804
1590.45	620
1599.02	1228
1607.59	1348
1616.14	498
1624.69	376
1633.22	342
1641.75	364
1650.26	358
1658.76	312
1667.26	304
1675.74	320
1684.21	306
1692.67	302
1701.12	310
1709.56	312
1717.99	304
1726.41	310
1734.82	312
1743.22	306
1751.61	306
1759.99	286
1768.36	298
1776.71	302
1785.06	300
1793.4	296
1801.73	288
1810.04	324
1818.35	308
1826.65	310
1834.94	312
1843.21	296
1851.48	306
1859.74	296
1867.98	294
1876.22	316
1884.45	306
1892.67	312
1900.87	320
1909.07	328
1917.26	320
1925.43	308
1933.6	314
1941.76	318
1949.91	316
1958.05	326
1966.17	306
1974.29	328
1982.4	318
1990.5	304
1998.59	300
2006.67	322
2014.74	324
2022.8	320
2030.85	332
2038.89	324
2046.92	334
2054.94	334
2062.95	336
2070.96	344
2078.95	330
2086.93	318
2094.91	334
2102.87	342
2110.83	324
2118.77	334
2126.71	330
2134.63	328
2142.55	304
2150.46	344
2158.35	316
2166.24	342
2174.12	348
2181.99	332
2189.85	334
2197.7	352
2205.55	340
2213.38	336
2221.2	322
2229.02	330
2236.82	360
2244.62	348
2252.4	352
2260.18	342
2267.95	372
2275.71	350
2283.46	362
2291.2	356
2298.93	344
2306.65	348
2314.37	364
2322.07	344
2329.77	338
2337.45	354
2345.13	358
2352.8	356
2360.46	356
2368.11	364
2375.75	368
2383.38	348
2391.01	356
2398.62	364
2406.23	352
2413.82	362
2421.41	360
2428.99	344
2436.56	372
2444.12	370
2449.79	388

File: ps-ppo-7jan25-1,0000-map3_Y02_X00.txt
182.393	1074
192.79	938
203.174	972
213.542	1066
223.897	1124
234.238	846
244.566	528
254.878	390
265.178	350
275.463	336
285.734	286
295.992	258
306.236	240
316.467	240
326.684	246
336.887	248
347.075	242
357.251	230
367.413	228
377.562	250
387.697	266
397.819	304
407.926	350
418.02	298
428.101	262
438.169	234
448.223	242
458.264	198
468.291	196
478.306	182
488.307	184
498.294	192
508.269	200
518.23	210
528.177	228
538.113	232
548.034	266
557.942	254
567.838	258
577.72	240
587.589	206
597.446	216
607.289	258
617.119	418
626.936	534
636.741	234
646.533	180
656.313	170
666.078	168
675.831	180
685.571	176
695.299	172
705.014	214
714.716	216
724.406	302
734.082	262
743.746	394
753.398	440
763.037	488
772.664	416
782.278	446
791.879	650
801.467	630
811.044	432
820.608	306
830.16	270
839.699	372
849.226	358
858.741	288
868.243	286
877.731	304
887.209	278
896.674	298
906.128	344
915.569	304
924.997	282
934.414	266
943.818	264
953.211	286
962.59	288
971.958	320
981.314	468
990.659	1118
999.99	4174
1009.31	1636
1018.62	460
1027.91	1196
1037.2	1456
1046.47	456
1055.73	412
1064.98	408
1074.22	440
1083.44	416
1092.65	422
1101.86	418
1111.05	336
1120.22	322
1129.39	272
1138.54	304
1147.69	406
1156.82	950
1165.94	538
1175.05	630
1184.14	1198
1193.23	1132
1202.3	1166
1211.36	748
1220.41	472
1229.45	434
1238.48	380
1247.5	376
1256.5	354
1265.49	348
1274.48	334
1283.45	344
1292.41	354
1301.36	414
1310.29	444
1319.22	490
1328.13	568
1337.04	484
1345.93	406
1354.81	352
1363.68	410
1372.54	378
1381.38	354
1390.22	308
1399.05	290
1407.86	292
1416.66	250
1425.46	262
1434.24	326
1443.01	472
1451.77	620
1460.52	392
1469.25	298
1477.98	288
1486.7	278
1495.4	320
1504.1	284
1512.78	262
1521.45	264
1530.11	272
1538.76	300
1547.41	274
1556.03	292
1564.65	318
1573.26	382
1581.86	794
1590.45	616
1599.02	1208
1607.59	1322
1616.14	478
1624.69	378
1633.22	342
1641.75	340
1650.26	344
1658.76	316
1667.26	296
1675.74	278
1684.21	312
1692.67	288
1701.12	284
1709.56	278
1717.99	270
1726.41	276
1734.82	286
1743.22	286
1751.61	280
1759.99	292
1768.36	286
1776.71	296
1785.06	296
1793.4	314
1801.73	288
1810.04	294
1818.35	274
1826.65	300
1834.94	312
1843.21	288
1851.48	290
1859.74	292
1867.98	294
1876.22	276
1884.45	304
1892.67	302
1900.87	284
1909.07	308
1917.26	316
1925.43	302
1933.6	320
1941.76	306
1949.91	310
1958.05	312
1966.17	312
1974.29	314
1982.4	308
1990.5	296
1998.59	292
2006.67	338
2014.74	316
2022.8	318
2030.85	296
2038.89	318
2046.92	314
2054.94	302
2062.95	322
2070.96	318
2078.95	336
2086.93	322
2094.91	320
2102.87	332
2110.83	320
2118.77	306
2126.71	310
2134.63	322
2142.55	338
2150.46	340
2158.35	360
2166.24	332
2174.12	328
2181.99	326
2189.85	310
2197.7	350
2205.55	322
2213.38	332
2221.2	324
2229.02	328
2236.82	342
2244.62	328
2252.4	344
2260.18	336
2267.95	346
2275.71	356
2283.46	336
2291.2	352
2298.93	360
2306.65	336
2314.37	346
2322.07	358
2329.77	342
2337.45	342
2345.13	352
2352.8	356
2360.46	334
2368.11	336
2375.75	344
2383.38	374
2391.01	332
2398.62	350
2406.23	350
2413.82	350
2421.41	364
2428.99	356
2436.56	358
2444.12	388
2449.79	382

File: ps-ppo-7jan25-1,0000-map3_Y02_X02.txt
182.393	1034
192.79	926
203.174	900
213.542	1018
223.897	1040
234.238	830
244.566	500
254.878	364
265.178	302
275.463	292
285.734	260
295.992	244
306.236	210
316.467	224
326.684	220
336.887	216
347.075	200
357.251	194
367.413	204
377.562	214
387.697	260
397.819	256
407.926	330
418.02	264
428.101	236
438.169	202
448.223	184
458.264	164
468.291	168
478.306	168
488.307	160
498.294	164
508.269	198
518.23	176
528.177	196
538.113	252
548.034	236
557.942	232
567.838	234
577.72	244
587.589	198
597.446	184
607.289	224
617.119	420
626.936	516
636.741	196
646.533	164
656.313	144
666.078	140
675.831	150
685.571	142
695.299	150
705.014	188
714.716	184
724.406	266
734.082	254
743.746	358
753.398	392
763.037	466
772.664	390
782.278	440
791.879	648
801.467	594
811.044	386
820.608	284
830.16	242
839.699	304
849.226	340
858.741	260
868.243	262
877.731	282
887.209	262
896.674	276
906.128	334
915.569	254
924.997	242
934.414	226
943.818	238
953.211	254
962.59	268
971.958	310
981.314	432
990.659	1136
999.99	4054
1009.31	1560
1018.62	424
1027.91	1130
1037.2	1386
1046.47	478
1055.73	372
1064.98	410
1074.22	410
1083.44	422
1092.65	380
1101.86	416
1111.05	328
1120.22	282
1129.39	258
1138.54	272
1147.69	384
1156.82	934
1165.94	472
1175.05	596
1184.14	1208
1193.23	1112
1202.3	1132
1211.36	702
1220.41	452
1229.45	408
1238.48	362
1247.5	342
1256.5	324
1265.49	344
1274.48	326
1283.45	318
1292.41	344
1301.36	374
1310.29	422
1319.22	438
1328.13	520
1337.04	486
1345.93	376
1354.81	368
1363.68	358
1372.54	366
1381.38	320
1390.22	262
1399.05	258
1407.86	260
1416.66	248
1425.46	248
1434.24	290
1443.01	470
1451.77	586
1460.52	380
1469.25	256
1477.98	254
1486.7	234
1495.4	292
1504.1	248
1512.78	230
1521.45	230
1530.11	250
1538.76	264
1547.41	264
1556.03	254
1564.65	294
1573.26	348
1581.86	780
1590.45	592
1599.02	1180
1607.59	1278
1616.14	450
1624.69	358
1633.22	310
1641.75	314
1650.26	320
1658.76	290
1667.26	264
1675.74	274
1684.21	280
1692.67	288
1701.12	284
1709.56	246
1717.99	272
1726.41	266
1734.82	256
1743.22	270
1751.61	278
1759.99	276
1768.36	264
1776.71	264
1785.06	264
1793.4	252
1801.73	288
1810.04	280
1818.35	288
1826.65	272
1834.94	286
1843.21	276
1851.48	292
1859.74	272
1867.98	284
1876.22	280
1884.45	260
1892.67	288
1900.87	262
1909.07	296
1917.26	304
1925.43	312
1933.6	316
1941.76	284
1949.91	304
1958.05	286
1966.17	276
1974.29	300
1982.4	300
1990.5	284
1998.59	314
2006.67	302
2014.74	320
2022.8	320
2030.85	300
2038.89	326
2046.92	310
2054.94	300
2062.95	318
2070.96	320
2078.95	306
2086.93	312
2094.91	316
2102.87	322
2110.83	322
2118.77	340
2126.71	326
2134.63	318
2142.55	310
2150.46	306
2158.35	324
2166.24	330
2174.12	338
2181.99	338
2189.85	326
2197.7	308
2205.55	334
2213.38	328
2221.2	328
2229.02	368
2236.82	332
2244.62	334
2252.4	354
2260.18	348
2267.95	348
2275.71	352
2283.46	356
2291.2	356
2298.93	374
2306.65	350
2314.37	366
2322.07	338
2329.77	352
2337.45	348
2345.13	356
2352.8	358
2360.46	364
2368.11	364
2375.75	362
2383.38	360
2391.01	374
2398.62	368
2406.23	366
2413.82	374
2421.41	346
2428.99	368
2436.56	362
2444.12	370
2449.79	376

File: ps-ppo-7jan25-1,0000-map3_Y02_X04.txt
182.393	1066
192.79	956
203.174	992
213.542	1076
223.897	1096
234.238	834
244.566	532
254.878	414
265.178	348
275.463	338
285.734	310
295.992	270
306.236	258
316.467	262
326.684	266
336.887	246
347.075	222
357.251	236
367.413	244
377.562	252
387.697	274
397.819	310
407.926	364
418.02	312
428.101	224
438.169	248
448.223	226
458.264	184
468.291	206
478.306	200
488.307	180
498.294	198
508.269	206
518.23	214
528.177	224
538.113	250
548.034	260
557.942	272
567.838	264
577.72	264
587.589	232
597.446	218
607.289	272
617.119	450
626.936	524
636.741	226
646.533	202
656.313	176
666.078	188
675.831	172
685.571	176
695.299	182
705.014	220
714.716	236
724.406	314
734.082	274
743.746	396
753.398	396
763.037	476
772.664	432
782.278	462
791.879	650
801.467	634
811.044	408
820.608	318
830.16	266
839.699	356
849.226	340
858.741	304
868.243	304
877.731	310
887.209	294
896.674	302
906.128	362
915.569	300
924.997	252
934.414	256
943.818	288
953.211	280
962.59	300
971.958	316
981.314	464
990.659	1130
999.99	4192
1009.31	1590
1018.62	472
1027.91	1158
1037.2	1428
1046.47	502
1055.73	404
1064.98	434
1074.22	448
1083.44	430
1092.65	438
1101.86	434
1111.05	340
1120.22	336
1129.39	280
1138.54	324
1147.69	438
1156.82	986
1165.94	514
1175.05	612
1184.14	1182
1193.23	1156
1202.3	1148
1211.36	724
1220.41	496
1229.45	438
1238.48	376
1247.5	376
1256.5	358
1265.49	368
1274.48	348
1283.45	374
1292.41	396
1301.36	420
1310.29	428
1319.22	496
1328.13	558
1337.04	502
1345.93	402
1354.81	384
1363.68	378
1372.54	400
1381.38	340
1390.22	278
1399.05	284
1407.86	294
1416.66	264
1425.46	278
1434.24	322
1443.01	502
1451.77	610
1460.52	380
1469.25	310
1477.98	284
1486.7	284
1495.4	320
1504.1	276
1512.78	282
1521.45	272
1530.11	262
1538.76	278
1547.41	256
1556.03	294
1564.65	318
1573.26	354
1581.86	784
1590.45	578
1599.02	1222
1607.59	1282
1616.14	468
1624.69	368
1633.22	336
1641.75	334
1650.26	350
1658.76	300
1667.26	272
1675.74	296
1684.21	304
1692.67	278
1701.12	294
1709.56	298
1717.99	270
1726.41	294
1734.82	290
1743.22	272
1751.61	276
1759.99	288
1768.36	272
1776.71	272
1785.06	274
1793.4	288
1801.73	284
1810.04	274
1818.35	292
1826.65	276
1834.94	296
1843.21	286
1851.48	288
1859.74	300
1867.98	292
1876.22	288
1884.45	290
1892.67	294
1900.87	294
1909.07	302
1917.26	316
1925.43	310
1933.6	330
1941.76	318
1949.91	324
1958.05	320
1966.17	294
1974.29	314
1982.4	300
1990.5	302
1998.59	310
2006.67	308
2014.74	312
2022.8	314
2030.85	306
2038.89	308
2046.92	304
2054.94	314
2062.95	314
2070.96	324
2078.95	320
2086.93	318
2094.91	316
2102.87	298
2110.83	314
2118.77	330
2126.71	316
2134.63	320
2142.55	330
2150.46	308
2158.35	322
2166.24	314
2174.12	318
2181.99	326
2189.85	324
2197.7	354
2205.55	328
2213.38	330
2221.2	350
2229.02	338
2236.82	330
2244.62	332
2252.4	312
2260.18	348
2267.95	320
2275.71	344
2283.46	328
2291.2	330
2298.93	344
2306.65	336
2314.37	360
2322.07	338
2329.77	326
2337.45	320
2345.13	334
2352.8	350
2360.46	344
2368.11	352
2375.75	322
2383.38	366
2391.01	342
2398.62	378
2406.23	344
2413.82	356
2421.41	348
2428.99	342
2436.56	312
2444.12	362
2449.79	362

File: ps-ppo-7jan25-1,0000-map3_Y02_X05.txt
182.393	1064
192.79	1028
203.174	1010
213.542	1048
223.897	1114
234.238	858
244.566	564
254.878	416
265.178	412
275.463	356
285.734	336
295.992	278
306.236	278
316.467	278
326.684	278
336.887	278
347.075	274
357.251	246
367.413	262
377.562	254
387.697	306
397.819	330
407.926	386
418.02	322
428.101	266
438.169	270
448.223	218
458.264	226
468.291	218
478.306	204
488.307	206
498.294	216
508.269	236
518.23	216
528.177	236
538.113	280
548.034	276
557.942	274
567.838	282
577.72	288
587.589	248
597.446	244
607.289	282
617.119	442
626.936	570
636.741	240
646.533	206
656.313	204
666.078	194
675.831	194
685.571	176
695.299	218
705.014	264
714.716	232
724.406	318
734.082	308
743.746	406
753.398	420
763.037	526
772.664	454
782.278	480
791.879	668
801.467	626
811.044	440
820.608	324
830.16	296
839.699	366
849.226	370
858.741	338
868.243	304
877.731	322
887.209	302
896.674	290
906.128	390
915.569	334
924.997	308
934.414	280
943.818	286
953.211	280
962.59	348
971.958	336
981.314	510
990.659	1212
999.99	4198
1009.31	1620
1018.62	492
1027.91	1178
1037.2	1482
1046.47	540
1055.73	448
1064.98	452
1074.22	470
1083.44	474
1092.65	448
1101.86	452
1111.05	384
1120.22	350
1129.39	310
1138.54	342
1147.69	464
1156.82	988
1165.94	568
1175.05	694
1184.14	1252
1193.23	1190
1202.3	1188
1211.36	770
1220.41	530
1229.45	472
1238.48	424
1247.5	380
1256.5	386
1265.49	408
1274.48	384
1283.45	414
1292.41	442
1301.36	464
1310.29	498
1319.22	518
1328.13	572
1337.04	566
1345.93	444
1354.81	426
1363.68	430
1372.54	434
1381.38	390
1390.22	348
1399.05	316
1407.86	306
1416.66	316
1425.46	290
1434.24	394
1443.01	540
1451.77	674
1460.52	436
1469.25	344
1477.98	312
1486.7	330
1495.4	348
1504.1	342
1512.78	306
1521.45	316
1530.11	314
1538.76	326
1547.41	320
1556.03	324
1564.65	350
1573.26	390
1581.86	844
1590.45	634
1599.02	1244
1607.59	1360
1616.14	526
1624.69	380
1633.22	348
1641.75	356
1650.26	362
1658.76	334
1667.26	320
1675.74	320
1684.21	328
1692.67	310
1701.12	286
1709.56	324
1717.99	334
1726.41	304
1734.82	312
1743.22	310
1751.61	324
1759.99	312
1768.36	332
1776.71	306
1785.06	318
1793.4	314
1801.73	326
1810.04	330
1818.35	318
1826.65	328
1834.94	312
1843.21	320
1851.48	302
1859.74	320
1867.98	326
1876.22	332
1884.45	322
1892.67	332
1900.87	332
1909.07	326
1917.26	338
1925.43	344
1933.6	336
1941.76	332
1949.91	322
1958.05	340
1966.17	318
1974.29	334
1982.4	318
1990.5	332
1998.59	300
2006.67	330
2014.74	322
2022.8	330
2030.85	326
2038.89	340
2046.92	356
2054.94	338
2062.95	336
2070.96	338
2078.95	324
2086.93	346
2094.91	330
2102.87	338
2110.83	344
2118.77	342
2126.71	346
2134.63	346
2142.55	334
2150.46	332
2158.35	322
2166.24	356
2174.12	342
2181.99	348
2189.85	368
2197.7	354
2205.55	348
2213.38	344
2221.2	362
2229.02	328
2236.82	358
2244.62	348
2252.4	356
2260.18	364
2267.95	352
2275.71	366
2283.46	358
2291.2	370
2298.93	354
2306.65	362
2314.37	358
2322.07	364
2329.77	362
2337.45	344
2345.13	372
2352.8	352
2360.46	378
2368.11	372
2375.75	338
2383.38	368
2391.01	350
2398.62	360
2406.23	362
2413.82	372
2421.41	378
2428.99	376
2436.56	380
2444.12	372
2449.79	384

File: ps-ppo-7jan25-1,0000-map3_Y02_X07.txt
182.393	1038
192.79	870
203.174	944
213.542	1070
223.897	1086
234.238	852
244.566	490
254.878	396
265.178	330
275.463	346
285.734	308
295.992	270
306.236	246
316.467	230
326.684	244
336.887	258
347.075	252
357.251	224
367.413	224
377.562	252
387.697	262
397.819	306
407.926	382
418.02	312
428.101	260
438.169	236
448.223	226
458.264	196
468.291	198
478.306	186
488.307	188
498.294	200
508.269	212
518.23	202
528.177	224
538.113	286
548.034	274
557.942	240
567.838	268
577.72	264
587.589	230
597.446	218
607.289	264
617.119	440
626.936	542
636.741	226
646.533	194
656.313	188
666.078	176
675.831	172
685.571	178
695.299	188
705.014	234
714.716	212
724.406	292
734.082	286
743.746	396
753.398	460
763.037	492
772.664	426
782.278	466
791.879	662
801.467	646
811.044	410
820.608	314
830.16	292
839.699	362
849.226	348
858.741	306
868.243	302
877.731	288
887.209	286
896.674	296
906.128	354
915.569	312
924.997	250
934.414	252
943.818	284
953.211	280
962.59	326
971.958	336
981.314	466
990.659	1140
999.99	4164
1009.31	1578
1018.62	464
1027.91	1172
1037.2	1420
1046.47	488
1055.73	410
1064.98	422
1074.22	456
1083.44	434
1092.65	434
1101.86	410
1111.05	350
1120.22	318
1129.39	290
1138.54	302
1147.69	426
1156.82	990
1165.94	542
1175.05	642
1184.14	1204
1193.23	1146
1202.3	1210
1211.36	756
1220.41	508
1229.45	464
1238.48	378
1247.5	386
1256.5	376
1265.49	374
1274.48	360
1283.45	362
1292.41	390
1301.36	436
1310.29	444
1319.22	526
1328.13	554
1337.04	544
1345.93	420
1354.81	394
1363.68	422
1372.54	418
1381.38	352
1390.22	308
1399.05	282
1407.86	314
1416.66	302
1425.46	304
1434.24	346
1443.01	520
1451.77	622
1460.52	406
1469.25	340
1477.98	314
1486.7	312
1495.4	318
1504.1	308
1512.78	290
1521.45	280
1530.11	318
1538.76	308
1547.41	318
1556.03	320
1564.65	352
1573.26	402
1581.86	832
1590.45	638
1599.02	1254
1607.59	1352
1616.14	518
1624.69	416
1633.22	372
1641.75	388
1650.26	388
1658.76	348
1667.26	338
1675.74	324
1684.21	318
1692.67	338
1701.12	330
1709.56	324
1717.99	338
1726.41	336
1734.82	320
1743.22	320
1751.61	306
1759.99	324
1768.36	324
1776.71	324
1785.06	310
1793.4	342
1801.73	338
1810.04	352
1818.35	336
1826.65	336
1834.94	352
1843.21	342
1851.48	334
1859.74	336
1867.98	320
1876.22	346
1884.45	328
1892.67	328
1900.87	348
1909.07	360
1917.26	342
1925.43	362
1933.6	374
1941.76	356
1949.91	360
1958.05	366
1966.17	360
1974.29	358
1982.4	330
1990.5	346
1998.59	356
2006.67	344
2014.74	344
2022.8	368
2030.85	356
2038.89	348
2046.92	344
2054.94	366
2062.95	350
2070.96	354
2078.95	358
2086.93	360
2094.91	344
2102.87	364
2110.83	372
2118.77	374
2126.71	364
2134.63	368
2142.55	364
2150.46	378
2158.35	384
2166.24	368
2174.12	358
2181.99	372
2189.85	366
2197.7	368
2205.55	368
2213.38	378
2221.2	372
2229.02	370
2236.82	388
2244.62	358
2252.4	376
2260.18	374
2267.95	382
2275.71	380
2283.46	368
2291.2	396
2298.93	368
2306.65	372
2314.37	382
2322.07	376
2329.77	360
2337.45	364
2345.13	388
2352.8	384
2360.46	382
2368.11	362
2375.75	374
2383.38	368
2391.01	378
2398.62	398
2406.23	386
2413.82	378
2421.41	396
2428.99	378
2436.56	392
2444.12	400
2449.79	408