Folder: NRC_SU25_Spectral_Classification/Mixture_Classification/Jesse_Dataset_v2/Pure Raman/Polystyrene/633nm (part 5)

File: ps-ppo-7jan25-1,0000-map3_Y06_X06.txt
182.393	1030
192.79	970
203.174	980
213.542	1044
223.897	1084
234.238	868
244.566	538
254.878	408
265.178	384
275.463	330
285.734	296
295.992	264
306.236	266
316.467	258
326.684	274
336.887	266
347.075	232
357.251	240
367.413	220
377.562	252
387.697	278
397.819	326
407.926	352
418.02	312
428.101	246
438.169	254
448.223	230
458.264	204
468.291	206
478.306	206
488.307	200
498.294	192
508.269	212
518.23	220
528.177	222
538.113	278
548.034	276
557.942	286
567.838	264
577.72	262
587.589	220
597.446	234
607.289	276
617.119	426
626.936	564
636.741	224
646.533	204
656.313	192
666.078	170
675.831	188
685.571	190
695.299	192
705.014	224
714.716	226
724.406	316
734.082	278
743.746	384
753.398	434
763.037	510
772.664	446
782.278	474
791.879	660
801.467	648
811.044	388
820.608	342
830.16	288
839.699	362
849.226	344
858.741	310
868.243	330
877.731	310
887.209	290
896.674	332
906.128	378
915.569	316
924.997	292
934.414	266
943.818	276
953.211	282
962.59	298
971.958	368
981.314	492
990.659	1210
999.99	4168
1009.31	1592
1018.62	494
1027.91	1178
1037.2	1414
1046.47	490
1055.73	414
1064.98	420
1074.22	436
1083.44	422
1092.65	430
1101.86	434
1111.05	358
1120.22	310
1129.39	252
1138.54	308
1147.69	430
1156.82	988
1165.94	542
1175.05	632
1184.14	1180
1193.23	1122
1202.3	1168
1211.36	758
1220.41	494
1229.45	436
1238.48	378
1247.5	376
1256.5	372
1265.49	352
1274.48	350
1283.45	362
1292.41	400
1301.36	414
1310.29	406
1319.22	466
1328.13	558
1337.04	508
1345.93	406
1354.81	390
1363.68	376
1372.54	404
1381.38	356
1390.22	278
1399.05	286
1407.86	292
1416.66	266
1425.46	280
1434.24	312
1443.01	476
1451.77	592
1460.52	388
1469.25	292
1477.98	292
1486.7	294
1495.4	290
1504.1	284
1512.78	276
1521.45	290
1530.11	302
1538.76	278
1547.41	258
1556.03	294
1564.65	310
1573.26	394
1581.86	794
1590.45	594
1599.02	1220
1607.59	1282
1616.14	490
1624.69	394
1633.22	336
1641.75	354
1650.26	334
1658.76	316
1667.26	306
1675.74	290
1684.21	304
1692.67	294
1701.12	292
1709.56	282
1717.99	296
1726.41	296
1734.82	272
1743.22	284
1751.61	284
1759.99	270
1768.36	274
1776.71	294
1785.06	284
1793.4	304
1801.73	282
1810.04	304
1818.35	316
1826.65	300
1834.94	318
1843.21	302
1851.48	280
1859.74	292
1867.98	294
1876.22	292
1884.45	312
1892.67	304
1900.87	296
1909.07	322
1917.26	328
1925.43	306
1933.6	324
1941.76	330
1949.91	324
1958.05	324
1966.17	312
1974.29	284
1982.4	320
1990.5	308
1998.59	322
2006.67	308
2014.74	308
2022.8	306
2030.85	308
2038.89	326
2046.92	336
2054.94	322
2062.95	336
2070.96	332
2078.95	328
2086.93	306
2094.91	302
2102.87	320
2110.83	310
2118.77	320
2126.71	340
2134.63	330
2142.55	342
2150.46	326
2158.35	328
2166.24	312
2174.12	320
2181.99	324
2189.85	324
2197.7	340
2205.55	350
2213.38	330
2221.2	338
2229.02	334
2236.82	350
2244.62	336
2252.4	332
2260.18	336
2267.95	356
2275.71	344
2283.46	342
2291.2	342
2298.93	350
2306.65	342
2314.37	334
2322.07	348
2329.77	338
2337.45	344
2345.13	350
2352.8	352
2360.46	350
2368.11	356
2375.75	364
2383.38	358
2391.01	356
2398.62	354
2406.23	358
2413.82	364
2421.41	358
2428.99	354
2436.56	382
2444.12	364
2449.79	366

File: ps-ppo-7jan25-1,0000-map3_Y06_X08.txt
182.393	1094
192.79	1034
203.174	988
213.542	1084
223.897	1092
234.238	878
244.566	570
254.878	408
265.178	390
275.463	356
285.734	328
295.992	286
306.236	306
316.467	274
326.684	282
336.887	266
347.075	270
357.251	260
367.413	270
377.562	284
387.697	310
397.819	320
407.926	356
418.02	310
428.101	278
438.169	256
448.223	248
458.264	234
468.291	222
478.306	208
488.307	206
498.294	220
508.269	230
518.23	222
528.177	260
538.113	284
548.034	274
557.942	292
567.838	282
577.72	270
587.589	238
597.446	236
607.289	264
617.119	446
626.936	548
636.741	238
646.533	204
656.313	204
666.078	180
675.831	200
685.571	198
695.299	188
705.014	238
714.716	234
724.406	314
734.082	290
743.746	392
753.398	448
763.037	496
772.664	470
782.278	470
791.879	666
801.467	666
811.044	422
820.608	316
830.16	292
839.699	380
849.226	352
858.741	306
868.243	318
877.731	318
887.209	312
896.674	306
906.128	404
915.569	334
924.997	286
934.414	292
943.818	286
953.211	304
962.59	322
971.958	354
981.314	494
990.659	1190
999.99	4240
1009.31	1554
1018.62	484
1027.91	1210
1037.2	1466
1046.47	528
1055.73	446
1064.98	484
1074.22	464
1083.44	474
1092.65	458
1101.86	440
1111.05	406
1120.22	358
1129.39	314
1138.54	350
1147.69	478
1156.82	1020
1165.94	558
1175.05	680
1184.14	1276
1193.23	1184
1202.3	1186
1211.36	768
1220.41	520
1229.45	480
1238.48	408
1247.5	430
1256.5	410
1265.49	424
1274.48	382
1283.45	388
1292.41	434
1301.36	450
1310.29	484
1319.22	524
1328.13	596
1337.04	524
1345.93	458
1354.81	450
1363.68	424
1372.54	416
1381.38	392
1390.22	320
1399.05	306
1407.86	332
1416.66	288
1425.46	316
1434.24	366
1443.01	532
1451.77	654
1460.52	432
1469.25	330
1477.98	328
1486.7	316
1495.4	340
1504.1	308
1512.78	308
1521.45	306
1530.11	286
1538.76	302
1547.41	300
1556.03	314
1564.65	344
1573.26	394
1581.86	818
1590.45	614
1599.02	1214
1607.59	1288
1616.14	500
1624.69	392
1633.22	366
1641.75	358
1650.26	344
1658.76	322
1667.26	314
1675.74	322
1684.21	308
1692.67	302
1701.12	304
1709.56	288
1717.99	294
1726.41	308
1734.82	304
1743.22	316
1751.61	276
1759.99	306
1768.36	318
1776.71	308
1785.06	310
1793.4	320
1801.73	310
1810.04	316
1818.35	296
1826.65	298
1834.94	300
1843.21	288
1851.48	306
1859.74	290
1867.98	298
1876.22	316
1884.45	302
1892.67	336
1900.87	326
1909.07	316
1917.26	320
1925.43	324
1933.6	290
1941.76	322
1949.91	332
1958.05	342
1966.17	326
1974.29	312
1982.4	306
1990.5	304
1998.59	322
2006.67	318
2014.74	324
2022.8	306
2030.85	304
2038.89	338
2046.92	342
2054.94	332
2062.95	328
2070.96	344
2078.95	334
2086.93	328
2094.91	328
2102.87	342
2110.83	320
2118.77	326
2126.71	332
2134.63	346
2142.55	350
2150.46	336
2158.35	332
2166.24	326
2174.12	338
2181.99	328
2189.85	346
2197.7	360
2205.55	350
2213.38	354
2221.2	358
2229.02	346
2236.82	330
2244.62	346
2252.4	348
2260.18	364
2267.95	352
2275.71	348
2283.46	344
2291.2	350
2298.93	340
2306.65	356
2314.37	346
2322.07	362
2329.77	348
2337.45	362
2345.13	360
2352.8	362
2360.46	354
2368.11	338
2375.75	358
2383.38	354
2391.01	348
2398.62	380
2406.23	358
2413.82	374
2421.41	356
2428.99	364
2436.56	354
2444.12	370
2449.79	376

File: ps-ppo-7jan25-1,0000-map3_Y06_X10.txt
182.393	1104
192.79	980
203.174	990
213.542	1108
223.897	1116
234.238	894
244.566	564
254.878	438
265.178	410
275.463	382
285.734	356
295.992	304
306.236	288
316.467	310
326.684	298
336.887	276
347.075	276
357.251	286
367.413	272
377.562	286
387.697	318
397.819	328
407.926	378
418.02	336
428.101	290
438.169	272
448.223	254
458.264	252
468.291	226
478.306	236
488.307	234
498.294	210
508.269	252
518.23	242
528.177	256
538.113	290
548.034	310
557.942	292
567.838	298
577.72	292
587.589	242
597.446	266
607.289	304
617.119	484
626.936	560
636.741	268
646.533	220
656.313	216
666.078	214
675.831	226
685.571	216
695.299	222
705.014	248
714.716	254
724.406	344
734.082	300
743.746	420
753.398	452
763.037	514
772.664	474
782.278	512
791.879	702
801.467	660
811.044	446
820.608	346
830.16	318
839.699	400
849.226	386
858.741	352
868.243	360
877.731	336
887.209	328
896.674	330
906.128	424
915.569	366
924.997	320
934.414	320
943.818	314
953.211	324
962.59	340
971.958	384
981.314	512
990.659	1214
999.99	4238
1009.31	1594
1018.62	526
1027.91	1234
1037.2	1468
1046.47	582
1055.73	462
1064.98	474
1074.22	534
1083.44	458
1092.65	492
1101.86	486
1111.05	434
1120.22	382
1129.39	358
1138.54	386
1147.69	502
1156.82	1032
1165.94	582
1175.05	738
1184.14	1266
1193.23	1170
1202.3	1242
1211.36	814
1220.41	584
1229.45	478
1238.48	444
1247.5	436
1256.5	442
1265.49	434
1274.48	438
1283.45	410
1292.41	440
1301.36	484
1310.29	500
1319.22	564
1328.13	576
1337.04	536
1345.93	452
1354.81	438
1363.68	446
1372.54	458
1381.38	416
1390.22	342
1399.05	328
1407.86	340
1416.66	308
1425.46	314
1434.24	384
1443.01	534
1451.77	656
1460.52	440
1469.25	356
1477.98	326
1486.7	322
1495.4	332
1504.1	318
1512.78	314
1521.45	316
1530.11	322
1538.76	326
1547.41	330
1556.03	334
1564.65	366
1573.26	406
1581.86	842
1590.45	604
1599.02	1274
1607.59	1350
1616.14	506
1624.69	408
1633.22	378
1641.75	362
1650.26	402
1658.76	336
1667.26	326
1675.74	332
1684.21	348
1692.67	316
1701.12	326
1709.56	308
1717.99	314
1726.41	312
1734.82	316
1743.22	302
1751.61	304
1759.99	306
1768.36	322
1776.71	298
1785.06	340
1793.4	316
1801.73	328
1810.04	310
1818.35	324
1826.65	312
1834.94	322
1843.21	322
1851.48	324
1859.74	340
1867.98	334
1876.22	324
1884.45	348
1892.67	318
1900.87	312
1909.07	340
1917.26	350
1925.43	322
1933.6	346
1941.76	334
1949.91	318
1958.05	332
1966.17	322
1974.29	338
1982.4	334
1990.5	318
1998.59	334
2006.67	330
2014.74	326
2022.8	344
2030.85	328
2038.89	312
2046.92	340
2054.94	346
2062.95	344
2070.96	330
2078.95	338
2086.93	336
2094.91	350
2102.87	344
2110.83	338
2118.77	356
2126.71	354
2134.63	366
2142.55	340
2150.46	356
2158.35	326
2166.24	372
2174.12	340
2181.99	358
2189.85	348
2197.7	328
2205.55	366
2213.38	354
2221.2	334
2229.02	378
2236.82	366
2244.62	348
2252.4	350
2260.18	366
2267.95	362
2275.71	342
2283.46	352
2291.2	354
2298.93	344
2306.65	372
2314.37	360
2322.07	370
2329.77	366
2337.45	382
2345.13	356
2352.8	362
2360.46	384
2368.11	358
2375.75	352
2383.38	384
2391.01	374
2398.62	370
2406.23	392
2413.82	362
2421.41	384
2428.99	372
2436.56	388
2444.12	398
2449.79	392

File: ps-ppo-7jan25-1,0000-map3_Y07_X01.txt
182.393	994
192.79	946
203.174	930
213.542	1044
223.897	1064
234.238	832
244.566	514
254.878	346
265.178	334
275.463	298
285.734	280
295.992	222
306.236	236
316.467	226
326.684	230
336.887	248
347.075	210
357.251	220
367.413	206
377.562	224
387.697	252
397.819	266
407.926	338
418.02	272
428.101	246
438.169	222
448.223	206
458.264	198
468.291	188
478.306	182
488.307	182
498.294	176
508.269	208
518.23	200
528.177	202
538.113	264
548.034	268
557.942	262
567.838	254
577.72	274
587.589	222
597.446	224
607.289	276
617.119	432
626.936	550
636.741	238
646.533	200
656.313	202
666.078	176
675.831	180
685.571	184
695.299	184
705.014	230
714.716	244
724.406	308
734.082	292
743.746	386
753.398	438
763.037	512
772.664	440
782.278	476
791.879	656
801.467	660
811.044	410
820.608	308
830.16	274
839.699	364
849.226	368
858.741	310
868.243	312
877.731	338
887.209	298
896.674	300
906.128	374
915.569	330
924.997	276
934.414	264
943.818	268
953.211	286
962.59	314
971.958	356
981.314	474
990.659	1188
999.99	4196
1009.31	1618
1018.62	490
1027.91	1172
1037.2	1428
1046.47	496
1055.73	402
1064.98	442
1074.22	442
1083.44	436
1092.65	406
1101.86	432
1111.05	358
1120.22	320
1129.39	290
1138.54	300
1147.69	400
1156.82	922
1165.94	490
1175.05	620
1184.14	1208
1193.23	1134
1202.3	1182
1211.36	740
1220.41	462
1229.45	446
1238.48	364
1247.5	364
1256.5	362
1265.49	350
1274.48	346
1283.45	352
1292.41	374
1301.36	406
1310.29	410
1319.22	454
1328.13	540
1337.04	490
1345.93	404
1354.81	366
1363.68	380
1372.54	376
1381.38	354
1390.22	294
1399.05	274
1407.86	282
1416.66	266
1425.46	268
1434.24	316
1443.01	480
1451.77	606
1460.52	386
1469.25	272
1477.98	262
1486.7	276
1495.4	320
1504.1	248
1512.78	266
1521.45	252
1530.11	284
1538.76	268
1547.41	274
1556.03	288
1564.65	314
1573.26	380
1581.86	826
1590.45	592
1599.02	1228
1607.59	1308
1616.14	498
1624.69	358
1633.22	310
1641.75	320
1650.26	332
1658.76	308
1667.26	284
1675.74	286
1684.21	286
1692.67	284
1701.12	278
1709.56	286
1717.99	288
1726.41	282
1734.82	272
1743.22	284
1751.61	266
1759.99	286
1768.36	288
1776.71	302
1785.06	284
1793.4	276
1801.73	300
1810.04	278
1818.35	294
1826.65	284
1834.94	286
1843.21	300
1851.48	284
1859.74	290
1867.98	296
1876.22	292
1884.45	306
1892.67	286
1900.87	290
1909.07	300
1917.26	308
1925.43	314
1933.6	310
1941.76	304
1949.91	324
1958.05	322
1966.17	310
1974.29	312
1982.4	318
1990.5	308
1998.59	308
2006.67	312
2014.74	314
2022.8	326
2030.85	310
2038.89	308
2046.92	332
2054.94	330
2062.95	324
2070.96	308
2078.95	322
2086.93	314
2094.91	318
2102.87	334
2110.83	328
2118.77	330
2126.71	358
2134.63	342
2142.55	326
2150.46	332
2158.35	344
2166.24	346
2174.12	322
2181.99	320
2189.85	330
2197.7	328
2205.55	352
2213.38	316
2221.2	336
2229.02	352
2236.82	326
2244.62	322
2252.4	340
2260.18	344
2267.95	338
2275.71	338
2283.46	336
2291.2	338
2298.93	352
2306.65	340
2314.37	338
2322.07	332
2329.77	328
2337.45	348
2345.13	350
2352.8	352
2360.46	346
2368.11	344
2375.75	344
2383.38	338
2391.01	350
2398.62	334
2406.23	354
2413.82	340
2421.41	344
2428.99	342
2436.56	352
2444.12	364
2449.79	348

File: ps-ppo-7jan25-1,0000-map3_Y07_X02.txt
182.393	1022
192.79	916
203.174	918
213.542	1026
223.897	1066
234.238	808
244.566	510
254.878	370
265.178	328
275.463	314
285.734	266
295.992	256
306.236	232
316.467	238
326.684	248
336.887	216
347.075	220
357.251	212
367.413	228
377.562	238
387.697	264
397.819	276
407.926	344
418.02	272
428.101	234
438.169	214
448.223	204
458.264	176
468.291	182
478.306	170
488.307	158
498.294	170
508.269	196
518.23	184
528.177	194
538.113	236
548.034	248
557.942	252
567.838	240
577.72	244
587.589	220
597.446	206
607.289	256
617.119	408
626.936	518
636.741	216
646.533	172
656.313	158
666.078	160
675.831	160
685.571	162
695.299	168
705.014	224
714.716	198
724.406	280
734.082	262
743.746	378
753.398	404
763.037	472
772.664	422
782.278	428
791.879	646
801.467	630
811.044	376
820.608	286
830.16	278
839.699	340
849.226	328
858.741	276
868.243	298
877.731	258
887.209	284
896.674	264
906.128	352
915.569	274
924.997	250
934.414	240
943.818	238
953.211	256
962.59	296
971.958	296
981.314	432
990.659	1150
999.99	4240
1009.31	1512
1018.62	444
1027.91	1176
1037.2	1436
1046.47	452
1055.73	366
1064.98	392
1074.22	434
1083.44	398
1092.65	412
1101.86	398
1111.05	330
1120.22	284
1129.39	260
1138.54	288
1147.69	384
1156.82	974
1165.94	494
1175.05	598
1184.14	1244
1193.23	1090
1202.3	1114
1211.36	692
1220.41	470
1229.45	426
1238.48	346
1247.5	336
1256.5	352
1265.49	336
1274.48	354
1283.45	332
1292.41	348
1301.36	396
1310.29	402
1319.22	460
1328.13	524
1337.04	468
1345.93	384
1354.81	364
1363.68	374
1372.54	372
1381.38	336
1390.22	262
1399.05	280
1407.86	250
1416.66	242
1425.46	254
1434.24	332
1443.01	494
1451.77	588
1460.52	394
1469.25	270
1477.98	278
1486.7	260
1495.4	308
1504.1	268
1512.78	264
1521.45	272
1530.11	256
1538.76	264
1547.41	270
1556.03	278
1564.65	296
1573.26	372
1581.86	780
1590.45	582
1599.02	1224
1607.59	1294
1616.14	476
1624.69	348
1633.22	330
1641.75	298
1650.26	358
1658.76	298
1667.26	284
1675.74	282
1684.21	282
1692.67	294
1701.12	258
1709.56	280
1717.99	270
1726.41	266
1734.82	264
1743.22	258
1751.61	280
1759.99	268
1768.36	296
1776.71	268
1785.06	270
1793.4	296
1801.73	274
1810.04	288
1818.35	298
1826.65	268
1834.94	284
1843.21	274
1851.48	286
1859.74	296
1867.98	292
1876.22	294
1884.45	290
1892.67	296
1900.87	300
1909.07	296
1917.26	310
1925.43	312
1933.6	302
1941.76	280
1949.91	298
1958.05	312
1966.17	320
1974.29	304
1982.4	300
1990.5	296
1998.59	290
2006.67	310
2014.74	296
2022.8	294
2030.85	322
2038.89	324
2046.92	318
2054.94	300
2062.95	304
2070.96	324
2078.95	328
2086.93	278
2094.91	308
2102.87	326
2110.83	316
2118.77	308
2126.71	322
2134.63	314
2142.55	320
2150.46	322
2158.35	330
2166.24	322
2174.12	320
2181.99	312
2189.85	328
2197.7	316
2205.55	332
2213.38	326
2221.2	316
2229.02	342
2236.82	312
2244.62	316
2252.4	316
2260.18	316
2267.95	318
2275.71	328
2283.46	336
2291.2	308
2298.93	316
2306.65	328
2314.37	350
2322.07	334
2329.77	334
2337.45	332
2345.13	326
2352.8	334
2360.46	314
2368.11	340
2375.75	338
2383.38	318
2391.01	340
2398.62	340
2406.23	328
2413.82	342
2421.41	342
2428.99	342
2436.56	342
2444.12	360
2449.79	334

File: ps-ppo-7jan25-1,0000-map3_Y07_X03.txt
182.393	1064
192.79	908
203.174	972
213.542	1056
223.897	1116
234.238	850
244.566	548
254.878	410
265.178	364
275.463	332
285.734	298
295.992	264
306.236	242
316.467	272
326.684	264
336.887	246
347.075	232
357.251	234
367.413	234
377.562	248
387.697	298
397.819	292
407.926	378
418.02	294
428.101	266
438.169	242
448.223	234
458.264	220
468.291	212
478.306	194
488.307	204
498.294	198
508.269	220
518.23	210
528.177	228
538.113	266
548.034	276
557.942	280
567.838	278
577.72	274
587.589	220
597.446	222
607.289	294
617.119	438
626.936	550
636.741	248
646.533	204
656.313	196
666.078	192
675.831	178
685.571	188
695.299	186
705.014	244
714.716	232
724.406	304
734.082	278
743.746	384
753.398	448
763.037	490
772.664	432
782.278	480
791.879	684
801.467	628
811.044	434
820.608	322
830.16	270
839.699	348
849.226	342
858.741	322
868.243	312
877.731	288
887.209	280
896.674	298
906.128	352
915.569	304
924.997	284
934.414	264
943.818	282
953.211	262
962.59	298
971.958	338
981.314	482
990.659	1146
999.99	4218
1009.31	1596
1018.62	490
1027.91	1214
1037.2	1448
1046.47	494
1055.73	388
1064.98	422
1074.22	428
1083.44	416
1092.65	428
1101.86	406
1111.05	340
1120.22	290
1129.39	272
1138.54	286
1147.69	414
1156.82	980
1165.94	530
1175.05	624
1184.14	1176
1193.23	1110
1202.3	1154
1211.36	772
1220.41	478
1229.45	428
1238.48	352
1247.5	364
1256.5	350
1265.49	368
1274.48	352
1283.45	338
1292.41	382
1301.36	400
1310.29	418
1319.22	468
1328.13	542
1337.04	484
1345.93	406
1354.81	360
1363.68	374
1372.54	378
1381.38	358
1390.22	262
1399.05	246
1407.86	274
1416.66	258
1425.46	260
1434.24	318
1443.01	480
1451.77	602
1460.52	378
1469.25	296
1477.98	276
1486.7	274
1495.4	312
1504.1	266
1512.78	250
1521.45	254
1530.11	254
1538.76	290
1547.41	264
1556.03	290
1564.65	298
1573.26	350
1581.86	814
1590.45	590
1599.02	1176
1607.59	1316
1616.14	480
1624.69	370
1633.22	322
1641.75	332
1650.26	356
1658.76	276
1667.26	272
1675.74	284
1684.21	306
1692.67	284
1701.12	282
1709.56	276
1717.99	274
1726.41	284
1734.82	268
1743.22	306
1751.61	302
1759.99	290
1768.36	284
1776.71	282
1785.06	262
1793.4	294
1801.73	290
1810.04	290
1818.35	292
1826.65	306
1834.94	296
1843.21	298
1851.48	292
1859.74	314
1867.98	276
1876.22	294
1884.45	300
1892.67	306
1900.87	284
1909.07	300
1917.26	310
1925.43	314
1933.6	304
1941.76	338
1949.91	306
1958.05	310
1966.17	314
1974.29	302
1982.4	298
1990.5	328
1998.59	308
2006.67	294
2014.74	294
2022.8	320
2030.85	300
2038.89	314
2046.92	324
2054.94	312
2062.95	314
2070.96	310
2078.95	318
2086.93	316
2094.91	340
2102.87	328
2110.83	316
2118.77	322
2126.71	322
2134.63	328
2142.55	330
2150.46	330
2158.35	334
2166.24	336
2174.12	320
2181.99	312
2189.85	326
2197.7	350
2205.55	332
2213.38	358
2221.2	340
2229.02	340
2236.82	346
2244.62	350
2252.4	328
2260.18	344
2267.95	332
2275.71	352
2283.46	342
2291.2	338
2298.93	320
2306.65	346
2314.37	350
2322.07	336
2329.77	364
2337.45	346
2345.13	348
2352.8	336
2360.46	332
2368.11	346
2375.75	342
2383.38	346
2391.01	348
2398.62	344
2406.23	358
2413.82	362
2421.41	364
2428.99	354
2436.56	352
2444.12	354
2449.79	372

File: ps-ppo-7jan25-1,0000-map3_Y07_X07.txt
182.393	1108
192.79	994
203.174	1026
213.542	1068
223.897	1130
234.238	888
244.566	580
254.878	434
265.178	392
275.463	370
285.734	332
295.992	294
306.236	266
316.467	290
326.684	266
336.887	290
347.075	274
357.251	264
367.413	270
377.562	276
387.697	296
397.819	316
407.926	370
418.02	332
428.101	282
438.169	258
448.223	256
458.264	242
468.291	234
478.306	216
488.307	214
498.294	220
508.269	228
518.23	222
528.177	232
538.113	294
548.034	302
557.942	298
567.838	288
577.72	272
587.589	254
597.446	232
607.289	314
617.119	458
626.936	550
636.741	254
646.533	208
656.313	204
666.078	192
675.831	202
685.571	198
695.299	216
705.014	250
714.716	232
724.406	312
734.082	300
743.746	424
753.398	452
763.037	484
772.664	434
782.278	476
791.879	700
801.467	644
811.044	420
820.608	318
830.16	318
839.699	370
849.226	380
858.741	318
868.243	336
877.731	304
887.209	340
896.674	334
906.128	410
915.569	340
924.997	296
934.414	290
943.818	292
953.211	282
962.59	344
971.958	370
981.314	502
990.659	1210
999.99	4270
1009.31	1620
1018.62	518
1027.91	1208
1037.2	1470
1046.47	528
1055.73	432
1064.98	456
1074.22	480
1083.44	466
1092.65	482
1101.86	480
1111.05	402
1120.22	346
1129.39	320
1138.54	338
1147.69	440
1156.82	1026
1165.94	564
1175.05	680
1184.14	1260
1193.23	1170
1202.3	1190
1211.36	778
1220.41	538
1229.45	452
1238.48	416
1247.5	400
1256.5	384
1265.49	386
1274.48	384
1283.45	366
1292.41	424
1301.36	456
1310.29	442
1319.22	508
1328.13	558
1337.04	522
1345.93	422
1354.81	390
1363.68	402
1372.54	406
1381.38	366
1390.22	318
1399.05	286
1407.86	312
1416.66	288
1425.46	288
1434.24	350
1443.01	504
1451.77	634
1460.52	404
1469.25	314
1477.98	310
1486.7	302
1495.4	324
1504.1	306
1512.78	298
1521.45	282
1530.11	298
1538.76	304
1547.41	284
1556.03	302
1564.65	338
1573.26	400
1581.86	846
1590.45	614
1599.02	1254
1607.59	1318
1616.14	486
1624.69	364
1633.22	346
1641.75	354
1650.26	358
1658.76	308
1667.26	294
1675.74	304
1684.21	308
1692.67	318
1701.12	292
1709.56	302
1717.99	298
1726.41	288
1734.82	282
1743.22	284
1751.61	302
1759.99	288
1768.36	302
1776.71	286
1785.06	302
1793.4	292
1801.73	304
1810.04	298
1818.35	300
1826.65	308
1834.94	302
1843.21	298
1851.48	312
1859.74	302
1867.98	318
1876.22	308
1884.45	298
1892.67	310
1900.87	308
1909.07	296
1917.26	314
1925.43	316
1933.6	326
1941.76	316
1949.91	320
1958.05	326
1966.17	300
1974.29	306
1982.4	316
1990.5	316
1998.59	322
2006.67	316
2014.74	320
2022.8	322
2030.85	316
2038.89	320
2046.92	328
2054.94	308
2062.95	342
2070.96	326
2078.95	310
2086.93	334
2094.91	322
2102.87	320
2110.83	328
2118.77	350
2126.71	332
2134.63	320
2142.55	334
2150.46	346
2158.35	344
2166.24	338
2174.12	354
2181.99	346
2189.85	348
2197.7	338
2205.55	338
2213.38	342
2221.2	344
2229.02	332
2236.82	322
2244.62	330
2252.4	350
2260.18	336
2267.95	346
2275.71	352
2283.46	348
2291.2	330
2298.93	342
2306.65	354
2314.37	352
2322.07	350
2329.77	334
2337.45	342
2345.13	344
2352.8	354
2360.46	342
2368.11	336
2375.75	352
2383.38	370
2391.01	356
2398.62	346
2406.23	354
2413.82	354
2421.41	342
2428.99	354
2436.56	334
2444.12	368
2449.79	366

File: ps-ppo-7jan25-1,0000-map3_Y08_X00.txt
182.393	1092
192.79	1014
203.174	1026
213.542	1088
223.897	1140
234.238	936
244.566	594
254.878	452
265.178	418
275.463	374
285.734	350
295.992	302
306.236	296
316.467	312
326.684	316
336.887	296
347.075	288
357.251	294
367.413	276
377.562	308
387.697	330
397.819	368
407.926	408
418.02	342
428.101	306
438.169	306
448.223	284
458.264	246
468.291	250
478.306	236
488.307	242
498.294	264
508.269	258
518.23	262
528.177	270
538.113	300
548.034	298
557.942	336
567.838	318
577.72	290
587.589	236
597.446	270
607.289	304
617.119	506
626.936	564
636.741	294
646.533	256
656.313	236
666.078	238
675.831	226
685.571	220
695.299	240
705.014	272
714.716	280
724.406	358
734.082	316
743.746	456
753.398	468
763.037	552
772.664	496
782.278	534
791.879	714
801.467	674
811.044	436
820.608	340
830.16	326
839.699	434
849.226	376
858.741	344
868.243	368
877.731	342
887.209	344
896.674	352
906.128	412
915.569	362
924.997	330
934.414	326
943.818	324
953.211	334
962.59	388
971.958	412
981.314	538
990.659	1230
999.99	4332
1009.31	1632
1018.62	562
1027.91	1240
1037.2	1514
1046.47	550
1055.73	464
1064.98	480
1074.22	510
1083.44	494
1092.65	506
1101.86	500
1111.05	416
1120.22	380
1129.39	334
1138.54	382
1147.69	508
1156.82	1034
1165.94	606
1175.05	686
1184.14	1298
1193.23	1188
1202.3	1222
1211.36	792
1220.41	554
1229.45	484
1238.48	442
1247.5	412
1256.5	394
1265.49	412
1274.48	388
1283.45	414
1292.41	422
1301.36	474
1310.29	468
1319.22	510
1328.13	576
1337.04	550
1345.93	456
1354.81	428
1363.68	428
1372.54	430
1381.38	384
1390.22	332
1399.05	330
1407.86	318
1416.66	314
1425.46	296
1434.24	372
1443.01	522
1451.77	638
1460.52	438
1469.25	322
1477.98	300
1486.7	304
1495.4	342
1504.1	302
1512.78	304
1521.45	306
1530.11	304
1538.76	314
1547.41	326
1556.03	346
1564.65	354
1573.26	414
1581.86	828
1590.45	614
1599.02	1292
1607.59	1318
1616.14	514
1624.69	406
1633.22	366
1641.75	358
1650.26	378
1658.76	312
1667.26	310
1675.74	306
1684.21	336
1692.67	318
1701.12	330
1709.56	302
1717.99	306
1726.41	300
1734.82	284
1743.22	294
1751.61	306
1759.99	288
1768.36	322
1776.71	294
1785.06	322
1793.4	324
1801.73	318
1810.04	314
1818.35	324
1826.65	314
1834.94	334
1843.21	320
1851.48	324
1859.74	338
1867.98	304
1876.22	308
1884.45	328
1892.67	300
1900.87	306
1909.07	312
1917.26	338
1925.43	320
1933.6	322
1941.76	338
1949.91	318
1958.05	326
1966.17	346
1974.29	336
1982.4	328
1990.5	340
1998.59	316
2006.67	328
2014.74	304
2022.8	340
2030.85	344
2038.89	324
2046.92	326
2054.94	340
2062.95	326
2070.96	342
2078.95	336
2086.93	326
2094.91	342
2102.87	332
2110.83	328
2118.77	342
2126.71	338
2134.63	338
2142.55	348
2150.46	368
2158.35	338
2166.24	362
2174.12	356
2181.99	334
2189.85	360
2197.7	354
2205.55	358
2213.38	346
2221.2	348
2229.02	356
2236.82	346
2244.62	354
2252.4	366
2260.18	360
2267.95	352
2275.71	362
2283.46	360
2291.2	352
2298.93	342
2306.65	346
2314.37	362
2322.07	366
2329.77	360
2337.45	352
2345.13	344
2352.8	358
2360.46	362
2368.11	364
2375.75	354
2383.38	358
2391.01	354
2398.62	354
2406.23	350
2413.82	342
2421.41	348
2428.99	388
2436.56	364
2444.12	376
2449.79	366