Folder: NRC_SU25_Spectral_Classification/Mixture_Classification/Jesse_Dataset_v2/Pure Raman/Polystyrene/633nm

Note: README.md
# Spectral Classification Project

This repository contains implementations of various machine learning and deep learning methods for the **one-shot classification of chemical spectra**. The goal is to identify the **chemical identity** of an unknown **Raman spectrum** by finding the best match from a reference library of known spectra.

The project explores and compares **four distinct approaches**, inspired by the methods described in *[Halas et al., ACS Nano, 2023](https://doi.org/10.1021/acsnano.3c05510)*.


---

## Core Concept: Spectral Identification

The fundamental problem is to take a **high-dimensional spectrum** from an unknown sample and accurately identify it by comparing it against a **library of known spectra**. Each method in this repository tackles this problem through a different **feature extraction** and **similarity matching** strategy.

---

## Included Implementations

This repository includes four primary methods for spectral classification:

- `CaPSim` (Characteristic Peak Similarity)
- `CaPSim` with `k-NN` Classifier
- `PCA` (Principal Component Analysis) Classifier
- `Siamese Network` for One-Shot Learning

All methods assume the data is provided in **CSV format**, with one file for the **reference library** and one for the **query spectra**. The **last column** in each file should be named **`Label`** and contain the chemical identifier.

---

### 1. CaPSim (Characteristic Peak Similarity)
**Script:** `CaPSim.py`  
**Approach:** Local peak-based dot-product similarity

**Concept:**  
This method directly implements the approach described in the Halas et al. paper. It assumes that key information in a spectrum is concentrated in a few discrete **characteristic peaks (CPs)**.

**Workflow:**
- **Preprocessing:** Baseline correction and L2 normalization
- **Feature Definition:** Identify most frequent or intense peaks per class → class-specific CPs
- **Feature Extraction:** Extract maximum intensity around CPs for each query
- **Similarity Matching:** Compute mean dot-product (CaPSim score); assign query to class with highest score

---

### 2. CaPSim with k-NN Classifier
**Script:** `CaPSim_kNN.py`  
**Approach:** Local peak-based features with supervised classification

**Concept:**  
An extension of CaPSim that uses the same CP-based features but replaces dot-product similarity with a learned `k-Nearest Neighbors` classifier.

**Workflow:**
- **Preprocessing:** Same as baseline CaPSim
- **Feature Definition:** Global CP set = union of all class CPs
- **Feature Extraction:** Fixed-length feature vectors for all reference spectra
- **Training:** Train a `k-NN` model using cosine distance
- **Classification:** Predict query identity using trained model

---

### 3. PCA (Principal Component Analysis) Classifier
**Script:** `PCA_Classification.py`  
**Approach:** Global shape-based classification in PCA space

**Concept:**  
A benchmark method that uses global spectral shape via PCA. It reduces the dimensionality of the spe

File: ps-ppo-7jan25-1,0000-map3_Y00_X00.txt
182.393	1060
192.79	1010
203.174	978
213.542	1074
223.897	1108
234.238	908
244.566	566
254.878	456
265.178	422
275.463	378
285.734	364
295.992	292
306.236	284
316.467	298
326.684	288
336.887	292
347.075	256
357.251	278
367.413	286
377.562	298
387.697	324
397.819	342
407.926	396
418.02	348
428.101	304
438.169	258
448.223	248
458.264	244
468.291	226
478.306	240
488.307	236
498.294	228
508.269	248
518.23	244
528.177	256
538.113	314
548.034	298
557.942	300
567.838	286
577.72	312
587.589	260
597.446	264
607.289	278
617.119	450
626.936	586
636.741	284
646.533	226
656.313	234
666.078	208
675.831	208
685.571	236
695.299	240
705.014	280
714.716	278
724.406	308
734.082	314
743.746	404
753.398	458
763.037	498
772.664	450
782.278	512
791.879	690
801.467	668
811.044	446
820.608	362
830.16	310
839.699	394
849.226	402
858.741	330
868.243	364
877.731	322
887.209	306
896.674	334
906.128	390
915.569	364
924.997	310
934.414	284
943.818	322
953.211	302
962.59	358
971.958	360
981.314	492
990.659	1206
999.99	4230
1009.31	1666
1018.62	514
1027.91	1258
1037.2	1458
1046.47	556
1055.73	450
1064.98	486
1074.22	460
1083.44	462
1092.65	468
1101.86	500
1111.05	400
1120.22	372
1129.39	314
1138.54	362
1147.69	480
1156.82	1010
1165.94	554
1175.05	708
1184.14	1256
1193.23	1168
1202.3	1226
1211.36	726
1220.41	542
1229.45	484
1238.48	430
1247.5	412
1256.5	386
1265.49	422
1274.48	410
1283.45	386
1292.41	412
1301.36	460
1310.29	494
1319.22	550
1328.13	594
1337.04	564
1345.93	462
1354.81	442
1363.68	426
1372.54	434
1381.38	410
1390.22	358
1399.05	336
1407.86	344
1416.66	314
1425.46	320
1434.24	358
1443.01	542
1451.77	646
1460.52	436
1469.25	330
1477.98	328
1486.7	336
1495.4	334
1504.1	336
1512.78	316
1521.45	314
1530.11	336
1538.76	308
1547.41	326
1556.03	312
1564.65	364
1573.26	418
1581.86	832
1590.45	644
1599.02	1314
1607.59	1346
1616.14	512
1624.69	414
1633.22	368
1641.75	380
1650.26	392
1658.76	330
1667.26	330
1675.74	342
1684.21	332
1692.67	338
1701.12	322
1709.56	326
1717.99	334
1726.41	326
1734.82	312
1743.22	312
1751.61	322
1759.99	328
1768.36	300
1776.71	314
1785.06	320
1793.4	316
1801.73	334
1810.04	328
1818.35	338
1826.65	336
1834.94	318
1843.21	310
1851.48	330
1859.74	340
1867.98	324
1876.22	328
1884.45	316
1892.67	342
1900.87	336
1909.07	330
1917.26	338
1925.43	340
1933.6	348
1941.76	330
1949.91	336
1958.05	366
1966.17	336
1974.29	340
1982.4	354
1990.5	336
1998.59	322
2006.67	328
2014.74	354
2022.8	340
2030.85	364
2038.89	346
2046.92	364
2054.94	350
2062.95	356
2070.96	344
2078.95	338
2086.93	364
2094.91	324
2102.87	352
2110.83	374
2118.77	358
2126.71	364
2134.63	350
2142.55	354
2150.46	364
2158.35	354
2166.24	352
2174.12	342
2181.99	346
2189.85	356
2197.7	374
2205.55	356
2213.38	362
2221.2	354
2229.02	338
2236.82	368
2244.62	368
2252.4	366
2260.18	350
2267.95	382
2275.71	334
2283.46	372
2291.2	372
2298.93	366
2306.65	348
2314.37	356
2322.07	350
2329.77	364
2337.45	378
2345.13	364
2352.8	364
2360.46	380
2368.11	382
2375.75	384
2383.38	362
2391.01	386
2398.62	370
2406.23	372
2413.82	386
2421.41	370
2428.99	390
2436.56	382
2444.12	384
2449.79	376

File: ps-ppo-7jan25-1,0000-map3_Y00_X03.txt
182.393	1058
192.79	964
203.174	980
213.542	1092
223.897	1084
234.238	888
244.566	580
254.878	432
265.178	370
275.463	334
285.734	310
295.992	306
306.236	290
316.467	296
326.684	296
336.887	284
347.075	266
357.251	264
367.413	248
377.562	284
387.697	312
397.819	332
407.926	396
418.02	318
428.101	286
438.169	260
448.223	226
458.264	202
468.291	218
478.306	230
488.307	218
498.294	214
508.269	242
518.23	236
528.177	260
538.113	286
548.034	286
557.942	284
567.838	290
577.72	278
587.589	246
597.446	252
607.289	286
617.119	472
626.936	562
636.741	260
646.533	214
656.313	208
666.078	206
675.831	206
685.571	194
695.299	212
705.014	250
714.716	246
724.406	320
734.082	292
743.746	418
753.398	444
763.037	508
772.664	464
782.278	488
791.879	676
801.467	654
811.044	434
820.608	316
830.16	308
839.699	378
849.226	382
858.741	322
868.243	316
877.731	330
887.209	322
896.674	330
906.128	384
915.569	340
924.997	294
934.414	292
943.818	292
953.211	304
962.59	346
971.958	356
981.314	496
990.659	1194
999.99	4292
1009.31	1604
1018.62	494
1027.91	1230
1037.2	1468
1046.47	526
1055.73	424
1064.98	478
1074.22	494
1083.44	456
1092.65	478
1101.86	454
1111.05	384
1120.22	360
1129.39	326
1138.54	346
1147.69	446
1156.82	1048
1165.94	574
1175.05	632
1184.14	1248
1193.23	1156
1202.3	1198
1211.36	772
1220.41	520
1229.45	478
1238.48	408
1247.5	414
1256.5	392
1265.49	418
1274.48	408
1283.45	408
1292.41	412
1301.36	488
1310.29	482
1319.22	504
1328.13	570
1337.04	522
1345.93	452
1354.81	436
1363.68	418
1372.54	438
1381.38	398
1390.22	312
1399.05	308
1407.86	320
1416.66	318
1425.46	332
1434.24	386
1443.01	554
1451.77	652
1460.52	428
1469.25	330
1477.98	322
1486.7	310
1495.4	352
1504.1	318
1512.78	316
1521.45	310
1530.11	314
1538.76	318
1547.41	324
1556.03	338
1564.65	356
1573.26	418
1581.86	826
1590.45	642
1599.02	1274
1607.59	1326
1616.14	510
1624.69	408
1633.22	360
1641.75	362
1650.26	404
1658.76	346
1667.26	308
1675.74	336
1684.21	326
1692.67	328
1701.12	340
1709.56	332
1717.99	326
1726.41	320
1734.82	330
1743.22	328
1751.61	312
1759.99	338
1768.36	304
1776.71	326
1785.06	324
1793.4	332
1801.73	340
1810.04	328
1818.35	330
1826.65	332
1834.94	344
1843.21	340
1851.48	336
1859.74	334
1867.98	322
1876.22	338
1884.45	336
1892.67	336
1900.87	352
1909.07	368
1917.26	342
1925.43	354
1933.6	342
1941.76	342
1949.91	322
1958.05	342
1966.17	352
1974.29	368
1982.4	350
1990.5	338
1998.59	344
2006.67	358
2014.74	344
2022.8	354
2030.85	364
2038.89	366
2046.92	370
2054.94	350
2062.95	366
2070.96	344
2078.95	356
2086.93	370
2094.91	340
2102.87	336
2110.83	352
2118.77	374
2126.71	382
2134.63	372
2142.55	376
2150.46	366
2158.35	374
2166.24	378
2174.12	364
2181.99	364
2189.85	378
2197.7	378
2205.55	344
2213.38	366
2221.2	354
2229.02	350
2236.82	370
2244.62	372
2252.4	368
2260.18	354
2267.95	388
2275.71	374
2283.46	360
2291.2	376
2298.93	372
2306.65	376
2314.37	384
2322.07	380
2329.77	372
2337.45	372
2345.13	374
2352.8	380
2360.46	384
2368.11	382
2375.75	378
2383.38	370
2391.01	364
2398.62	372
2406.23	366
2413.82	368
2421.41	388
2428.99	360
2436.56	398
2444.12	402
2449.79	396

File: ps-ppo-7jan25-1,0000-map3_Y00_X05.txt
182.393	1090
192.79	1022
203.174	1036
213.542	1104
223.897	1114
234.238	900
244.566	606
254.878	456
265.178	424
275.463	386
285.734	388
295.992	330
306.236	316
316.467	318
326.684	342
336.887	318
347.075	290
357.251	298
367.413	314
377.562	330
387.697	334
397.819	382
407.926	416
418.02	384
428.101	316
438.169	306
448.223	278
458.264	256
468.291	260
478.306	260
488.307	250
498.294	264
508.269	300
518.23	270
528.177	300
538.113	322
548.034	316
557.942	316
567.838	308
577.72	320
587.589	264
597.446	274
607.289	346
617.119	478
626.936	634
636.741	290
646.533	246
656.313	232
666.078	258
675.831	238
685.571	256
695.299	254
705.014	286
714.716	286
724.406	370
734.082	322
743.746	428
753.398	464
763.037	554
772.664	484
782.278	538
791.879	708
801.467	680
811.044	444
820.608	362
830.16	332
839.699	388
849.226	402
858.741	334
868.243	352
877.731	352
887.209	308
896.674	334
906.128	436
915.569	344
924.997	306
934.414	320
943.818	336
953.211	316
962.59	354
971.958	402
981.314	514
990.659	1232
999.99	4148
1009.31	1622
1018.62	524
1027.91	1212
1037.2	1442
1046.47	542
1055.73	424
1064.98	450
1074.22	490
1083.44	482
1092.65	476
1101.86	484
1111.05	386
1120.22	358
1129.39	324
1138.54	340
1147.69	444
1156.82	1004
1165.94	570
1175.05	684
1184.14	1222
1193.23	1150
1202.3	1202
1211.36	804
1220.41	546
1229.45	464
1238.48	412
1247.5	398
1256.5	406
1265.49	398
1274.48	394
1283.45	390
1292.41	426
1301.36	460
1310.29	464
1319.22	504
1328.13	568
1337.04	542
1345.93	444
1354.81	432
1363.68	440
1372.54	426
1381.38	410
1390.22	332
1399.05	326
1407.86	312
1416.66	286
1425.46	318
1434.24	376
1443.01	516
1451.77	654
1460.52	452
1469.25	318
1477.98	324
1486.7	322
1495.4	354
1504.1	300
1512.78	304
1521.45	282
1530.11	312
1538.76	310
1547.41	302
1556.03	342
1564.65	352
1573.26	392
1581.86	834
1590.45	632
1599.02	1274
1607.59	1352
1616.14	522
1624.69	392
1633.22	388
1641.75	366
1650.26	378
1658.76	346
1667.26	324
1675.74	336
1684.21	332
1692.67	332
1701.12	334
1709.56	352
1717.99	338
1726.41	312
1734.82	342
1743.22	340
1751.61	316
1759.99	306
1768.36	332
1776.71	318
1785.06	318
1793.4	332
1801.73	352
1810.04	326
1818.35	318
1826.65	324
1834.94	338
1843.21	330
1851.48	340
1859.74	340
1867.98	334
1876.22	326
1884.45	346
1892.67	348
1900.87	324
1909.07	368
1917.26	360
1925.43	346
1933.6	342
1941.76	310
1949.91	350
1958.05	340
1966.17	358
1974.29	346
1982.4	342
1990.5	374
1998.59	332
2006.67	332
2014.74	344
2022.8	336
2030.85	334
2038.89	374
2046.92	358
2054.94	332
2062.95	350
2070.96	364
2078.95	360
2086.93	364
2094.91	356
2102.87	368
2110.83	352
2118.77	366
2126.71	336
2134.63	364
2142.55	350
2150.46	368
2158.35	358
2166.24	370
2174.12	346
2181.99	346
2189.85	342
2197.7	350
2205.55	364
2213.38	376
2221.2	372
2229.02	370
2236.82	370
2244.62	392
2252.4	352
2260.18	370
2267.95	366
2275.71	366
2283.46	344
2291.2	376
2298.93	352
2306.65	364
2314.37	344
2322.07	380
2329.77	372
2337.45	368
2345.13	384
2352.8	360
2360.46	386
2368.11	370
2375.75	364
2383.38	364
2391.01	350
2398.62	366
2406.23	370
2413.82	374
2421.41	360
2428.99	396
2436.56	352
2444.12	384
2449.79	390

File: ps-ppo-7jan25-1,0000-map3_Y00_X06.txt
182.393	1114
192.79	1030
203.174	1022
213.542	1166
223.897	1174
234.238	894
244.566	624
254.878	492
265.178	450
275.463	414
285.734	390
295.992	348
306.236	344
316.467	330
326.684	318
336.887	348
347.075	308
357.251	324
367.413	296
377.562	304
387.697	354
397.819	382
407.926	414
418.02	370
428.101	324
438.169	306
448.223	300
458.264	278
468.291	274
478.306	258
488.307	260
498.294	248
508.269	284
518.23	270
528.177	282
538.113	320
548.034	322
557.942	332
567.838	316
577.72	314
587.589	280
597.446	278
607.289	328
617.119	488
626.936	604
636.741	282
646.533	248
656.313	240
666.078	208
675.831	210
685.571	226
695.299	226
705.014	264
714.716	266
724.406	364
734.082	316
743.746	432
753.398	480
763.037	546
772.664	480
782.278	496
791.879	700
801.467	652
811.044	466
820.608	334
830.16	300
839.699	374
849.226	370
858.741	330
868.243	346
877.731	316
887.209	324
896.674	336
906.128	376
915.569	346
924.997	288
934.414	280
943.818	314
953.211	314
962.59	320
971.958	356
981.314	480
990.659	1228
999.99	4200
1009.31	1608
1018.62	500
1027.91	1212
1037.2	1450
1046.47	538
1055.73	440
1064.98	434
1074.22	470
1083.44	462
1092.65	446
1101.86	448
1111.05	380
1120.22	330
1129.39	320
1138.54	296
1147.69	458
1156.82	1016
1165.94	522
1175.05	654
1184.14	1242
1193.23	1180
1202.3	1214
1211.36	760
1220.41	518
1229.45	452
1238.48	432
1247.5	392
1256.5	376
1265.49	394
1274.48	388
1283.45	402
1292.41	428
1301.36	444
1310.29	464
1319.22	510
1328.13	552
1337.04	496
1345.93	448
1354.81	394
1363.68	418
1372.54	414
1381.38	358
1390.22	310
1399.05	318
1407.86	320
1416.66	304
1425.46	306
1434.24	352
1443.01	532
1451.77	654
1460.52	404
1469.25	322
1477.98	310
1486.7	328
1495.4	334
1504.1	298
1512.78	302
1521.45	326
1530.11	288
1538.76	298
1547.41	310
1556.03	340
1564.65	354
1573.26	416
1581.86	848
1590.45	652
1599.02	1250
1607.59	1358
1616.14	516
1624.69	390
1633.22	360
1641.75	358
1650.26	368
1658.76	312
1667.26	320
1675.74	340
1684.21	326
1692.67	320
1701.12	318
1709.56	322
1717.99	306
1726.41	312
1734.82	320
1743.22	304
1751.61	308
1759.99	306
1768.36	310
1776.71	324
1785.06	318
1793.4	320
1801.73	316
1810.04	334
1818.35	324
1826.65	316
1834.94	320
1843.21	314
1851.48	322
1859.74	330
1867.98	332
1876.22	342
1884.45	330
1892.67	326
1900.87	334
1909.07	332
1917.26	336
1925.43	350
1933.6	340
1941.76	342
1949.91	342
1958.05	302
1966.17	334
1974.29	340
1982.4	330
1990.5	322
1998.59	328
2006.67	338
2014.74	320
2022.8	332
2030.85	320
2038.89	358
2046.92	338
2054.94	360
2062.95	346
2070.96	348
2078.95	344
2086.93	348
2094.91	346
2102.87	354
2110.83	344
2118.77	358
2126.71	336
2134.63	342
2142.55	346
2150.46	360
2158.35	356
2166.24	354
2174.12	346
2181.99	354
2189.85	362
2197.7	344
2205.55	348
2213.38	364
2221.2	348
2229.02	356
2236.82	350
2244.62	348
2252.4	352
2260.18	350
2267.95	356
2275.71	342
2283.46	362
2291.2	354
2298.93	354
2306.65	354
2314.37	354
2322.07	344
2329.77	356
2337.45	356
2345.13	370
2352.8	372
2360.46	374
2368.11	344
2375.75	370
2383.38	320
2391.01	370
2398.62	366
2406.23	366
2413.82	354
2421.41	372
2428.99	366
2436.56	384
2444.12	364
2449.79	394

File: ps-ppo-7jan25-1,0000-map3_Y00_X10.txt
182.393	1048
192.79	966
203.174	974
213.542	1060
223.897	1056
234.238	866
244.566	554
254.878	406
265.178	370
275.463	344
285.734	310
295.992	268
306.236	270
316.467	266
326.684	264
336.887	262
347.075	232
357.251	236
367.413	236
377.562	256
387.697	260
397.819	294
407.926	370
418.02	294
428.101	256
438.169	226
448.223	238
458.264	196
468.291	194
478.306	190
488.307	184
498.294	186
508.269	214
518.23	210
528.177	218
538.113	268
548.034	274
557.942	270
567.838	248
577.72	270
587.589	244
597.446	220
607.289	264
617.119	432
626.936	540
636.741	252
646.533	188
656.313	202
666.078	180
675.831	178
685.571	188
695.299	208
705.014	228
714.716	238
724.406	316
734.082	292
743.746	394
753.398	436
763.037	502
772.664	426
782.278	470
791.879	658
801.467	630
811.044	432
820.608	318
830.16	282
839.699	366
849.226	360
858.741	304
868.243	306
877.731	312
887.209	296
896.674	296
906.128	382
915.569	316
924.997	282
934.414	274
943.818	292
953.211	276
962.59	336
971.958	344
981.314	502
990.659	1186
999.99	4168
1009.31	1592
1018.62	482
1027.91	1200
1037.2	1448
1046.47	494
1055.73	426
1064.98	416
1074.22	468
1083.44	454
1092.65	418
1101.86	418
1111.05	390
1120.22	344
1129.39	292
1138.54	322
1147.69	420
1156.82	988
1165.94	514
1175.05	652
1184.14	1238
1193.23	1150
1202.3	1192
1211.36	764
1220.41	506
1229.45	458
1238.48	402
1247.5	388
1256.5	372
1265.49	384
1274.48	378
1283.45	360
1292.41	406
1301.36	440
1310.29	460
1319.22	496
1328.13	556
1337.04	498
1345.93	432
1354.81	386
1363.68	406
1372.54	388
1381.38	386
1390.22	294
1399.05	316
1407.86	314
1416.66	288
1425.46	302
1434.24	374
1443.01	520
1451.77	636
1460.52	392
1469.25	346
1477.98	298
1486.7	312
1495.4	310
1504.1	308
1512.78	298
1521.45	296
1530.11	290
1538.76	314
1547.41	298
1556.03	302
1564.65	344
1573.26	400
1581.86	840
1590.45	642
1599.02	1254
1607.59	1330
1616.14	528
1624.69	400
1633.22	380
1641.75	364
1650.26	388
1658.76	306
1667.26	312
1675.74	332
1684.21	332
1692.67	318
1701.12	336
1709.56	306
1717.99	324
1726.41	310
1734.82	316
1743.22	308
1751.61	324
1759.99	298
1768.36	306
1776.71	330
1785.06	328
1793.4	306
1801.73	326
1810.04	332
1818.35	340
1826.65	320
1834.94	328
1843.21	320
1851.48	322
1859.74	322
1867.98	316
1876.22	318
1884.45	344
1892.67	322
1900.87	348
1909.07	334
1917.26	328
1925.43	334
1933.6	352
1941.76	342
1949.91	330
1958.05	334
1966.17	334
1974.29	330
1982.4	330
1990.5	342
1998.59	344
2006.67	352
2014.74	342
2022.8	346
2030.85	354
2038.89	340
2046.92	352
2054.94	366
2062.95	358
2070.96	348
2078.95	350
2086.93	352
2094.91	342
2102.87	352
2110.83	368
2118.77	342
2126.71	354
2134.63	350
2142.55	358
2150.46	336
2158.35	380
2166.24	372
2174.12	352
2181.99	370
2189.85	360
2197.7	348
2205.55	368
2213.38	354
2221.2	346
2229.02	360
2236.82	364
2244.62	358
2252.4	356
2260.18	366
2267.95	368
2275.71	368
2283.46	368
2291.2	346
2298.93	360
2306.65	356
2314.37	386
2322.07	362
2329.77	388
2337.45	366
2345.13	370
2352.8	372
2360.46	372
2368.11	372
2375.75	368
2383.38	358
2391.01	364
2398.62	354
2406.23	346
2413.82	398
2421.41	362
2428.99	382
2436.56	384
2444.12	392
2449.79	384

File: ps-ppo-7jan25-1,0000-map3_Y01_X00.txt
182.393	1060
192.79	946
203.174	966
213.542	1042
223.897	1062
234.238	846
244.566	548
254.878	384
265.178	358
275.463	338
285.734	310
295.992	288
306.236	270
316.467	246
326.684	268
336.887	246
347.075	232
357.251	218
367.413	252
377.562	270
387.697	294
397.819	308
407.926	390
418.02	308
428.101	264
438.169	242
448.223	230
458.264	212
468.291	194
478.306	204
488.307	204
498.294	196
508.269	212
518.23	216
528.177	226
538.113	264
548.034	286
557.942	274
567.838	270
577.72	250
587.589	214
597.446	238
607.289	272
617.119	446
626.936	554
636.741	234
646.533	194
656.313	188
666.078	192
675.831	178
685.571	196
695.299	198
705.014	232
714.716	232
724.406	320
734.082	298
743.746	396
753.398	426
763.037	482
772.664	432
782.278	470
791.879	664
801.467	672
811.044	428
820.608	302
830.16	274
839.699	344
849.226	346
858.741	312
868.243	298
877.731	298
887.209	270
896.674	290
906.128	364
915.569	326
924.997	274
934.414	254
943.818	268
953.211	290
962.59	320
971.958	340
981.314	474
990.659	1160
999.99	4132
1009.31	1572
1018.62	486
1027.91	1210
1037.2	1404
1046.47	510
1055.73	416
1064.98	440
1074.22	448
1083.44	442
1092.65	410
1101.86	408
1111.05	380
1120.22	310
1129.39	298
1138.54	290
1147.69	430
1156.82	1008
1165.94	550
1175.05	656
1184.14	1210
1193.23	1134
1202.3	1206
1211.36	742
1220.41	492
1229.45	440
1238.48	404
1247.5	398
1256.5	378
1265.49	376
1274.48	376
1283.45	370
1292.41	402
1301.36	416
1310.29	446
1319.22	474
1328.13	554
1337.04	512
1345.93	416
1354.81	404
1363.68	370
1372.54	402
1381.38	352
1390.22	300
1399.05	290
1407.86	294
1416.66	270
1425.46	288
1434.24	334
1443.01	502
1451.77	596
1460.52	412
1469.25	306
1477.98	298
1486.7	296
1495.4	318
1504.1	294
1512.78	280
1521.45	290
1530.11	282
1538.76	300
1547.41	304
1556.03	320
1564.65	322
1573.26	390
1581.86	816
1590.45	632
1599.02	1246
1607.59	1280
1616.14	474
1624.69	386
1633.22	322
1641.75	364
1650.26	368
1658.76	302
1667.26	318
1675.74	322
1684.21	308
1692.67	300
1701.12	308
1709.56	304
1717.99	290
1726.41	280
1734.82	292
1743.22	290
1751.61	290
1759.99	304
1768.36	300
1776.71	322
1785.06	280
1793.4	306
1801.73	308
1810.04	316
1818.35	322
1826.65	310
1834.94	314
1843.21	296
1851.48	298
1859.74	290
1867.98	300
1876.22	292
1884.45	324
1892.67	318
1900.87	308
1909.07	312
1917.26	318
1925.43	320
1933.6	312
1941.76	296
1949.91	320
1958.05	326
1966.17	340
1974.29	298
1982.4	330
1990.5	320
1998.59	316
2006.67	336
2014.74	320
2022.8	330
2030.85	324
2038.89	322
2046.92	320
2054.94	330
2062.95	346
2070.96	334
2078.95	338
2086.93	324
2094.91	316
2102.87	342
2110.83	348
2118.77	328
2126.71	342
2134.63	322
2142.55	332
2150.46	338
2158.35	354
2166.24	342
2174.12	316
2181.99	318
2189.85	352
2197.7	346
2205.55	342
2213.38	338
2221.2	338
2229.02	338
2236.82	340
2244.62	336
2252.4	344
2260.18	340
2267.95	348
2275.71	338
2283.46	332
2291.2	352
2298.93	324
2306.65	362
2314.37	350
2322.07	332
2329.77	332
2337.45	354
2345.13	356
2352.8	364
2360.46	380
2368.11	360
2375.75	380
2383.38	352
2391.01	348
2398.62	344
2406.23	364
2413.82	332
2421.41	370
2428.99	368
2436.56	370
2444.12	370
2449.79	384

File: ps-ppo-7jan25-1,0000-map3_Y01_X01.txt
182.393	1036
192.79	950
203.174	922
213.542	1034
223.897	1092
234.238	848
244.566	526
254.878	392
265.178	348
275.463	336
285.734	302
295.992	260
306.236	226
316.467	256
326.684	238
336.887	228
347.075	234
357.251	234
367.413	232
377.562	250
387.697	268
397.819	278
407.926	362
418.02	310
428.101	248
438.169	226
448.223	228
458.264	188
468.291	190
478.306	198
488.307	186
498.294	198
508.269	194
518.23	214
528.177	206
538.113	272
548.034	268
557.942	262
567.838	254
577.72	252
587.589	228
597.446	214
607.289	268
617.119	436
626.936	552
636.741	210
646.533	180
656.313	188
666.078	162
675.831	178
685.571	176
695.299	190
705.014	218
714.716	222
724.406	296
734.082	284
743.746	378
753.398	434
763.037	492
772.664	438
782.278	456
791.879	668
801.467	648
811.044	390
820.608	302
830.16	272
839.699	362
849.226	392
858.741	302
868.243	322
877.731	316
887.209	292
896.674	302
906.128	388
915.569	318
924.997	288
934.414	264
943.818	276
953.211	296
962.59	330
971.958	352
981.314	472
990.659	1172
999.99	4144
1009.31	1586
1018.62	478
1027.91	1210
1037.2	1458
1046.47	490
1055.73	418
1064.98	406
1074.22	454
1083.44	450
1092.65	448
1101.86	450
1111.05	386
1120.22	316
1129.39	286
1138.54	308
1147.69	420
1156.82	982
1165.94	548
1175.05	672
1184.14	1242
1193.23	1136
1202.3	1154
1211.36	748
1220.41	504
1229.45	444
1238.48	384
1247.5	402
1256.5	366
1265.49	360
1274.48	362
1283.45	378
1292.41	420
1301.36	416
1310.29	448
1319.22	474
1328.13	544
1337.04	508
1345.93	410
1354.81	404
1363.68	374
1372.54	376
1381.38	372
1390.22	298
1399.05	264
1407.86	278
1416.66	274
1425.46	284
1434.24	352
1443.01	510
1451.77	624
1460.52	422
1469.25	302
1477.98	274
1486.7	310
1495.4	334
1504.1	292
1512.78	288
1521.45	288
1530.11	268
1538.76	292
1547.41	280
1556.03	298
1564.65	330
1573.26	378
1581.86	818
1590.45	610
1599.02	1238
1607.59	1286
1616.14	482
1624.69	386
1633.22	326
1641.75	336
1650.26	376
1658.76	286
1667.26	288
1675.74	298
1684.21	304
1692.67	290
1701.12	300
1709.56	318
1717.99	300
1726.41	280
1734.82	296
1743.22	280
1751.61	294
1759.99	272
1768.36	288
1776.71	300
1785.06	314
1793.4	284
1801.73	300
1810.04	304
1818.35	322
1826.65	296
1834.94	314
1843.21	300
1851.48	300
1859.74	320
1867.98	304
1876.22	310
1884.45	316
1892.67	306
1900.87	316
1909.07	326
1917.26	322
1925.43	314
1933.6	316
1941.76	324
1949.91	320
1958.05	342
1966.17	326
1974.29	318
1982.4	320
1990.5	312
1998.59	312
2006.67	326
2014.74	316
2022.8	326
2030.85	320
2038.89	324
2046.92	334
2054.94	326
2062.95	346
2070.96	338
2078.95	326
2086.93	334
2094.91	324
2102.87	338
2110.83	334
2118.77	330
2126.71	336
2134.63	350
2142.55	342
2150.46	342
2158.35	356
2166.24	330
2174.12	342
2181.99	346
2189.85	348
2197.7	354
2205.55	362
2213.38	336
2221.2	348
2229.02	356
2236.82	344
2244.62	358
2252.4	332
2260.18	356
2267.95	372
2275.71	348
2283.46	336
2291.2	332
2298.93	352
2306.65	348
2314.37	352
2322.07	344
2329.77	350
2337.45	370
2345.13	340
2352.8	350
2360.46	346
2368.11	380
2375.75	364
2383.38	368
2391.01	358
2398.62	354
2406.23	372
2413.82	374
2421.41	364
2428.99	350
2436.56	378
2444.12	366
2449.79	364