Folder: NRC_SU25_Spectral_Classification/Mixture_Classification/Jesse_Dataset_v2/Pure Raman/Polystyrene/633nm (part 4)

File: ps-ppo-7jan25-1,0000-map3_Y03_X07.txt
182.393	972
192.79	944
203.174	934
213.542	1076
223.897	1086
234.238	804
244.566	526
254.878	386
265.178	352
275.463	318
285.734	274
295.992	252
306.236	246
316.467	250
326.684	250
336.887	230
347.075	238
357.251	228
367.413	226
377.562	236
387.697	278
397.819	312
407.926	358
418.02	292
428.101	252
438.169	222
448.223	222
458.264	198
468.291	188
478.306	184
488.307	180
498.294	178
508.269	204
518.23	198
528.177	222
538.113	252
548.034	258
557.942	244
567.838	262
577.72	252
587.589	220
597.446	208
607.289	258
617.119	436
626.936	536
636.741	228
646.533	194
656.313	182
666.078	186
675.831	170
685.571	174
695.299	182
705.014	226
714.716	218
724.406	302
734.082	290
743.746	386
753.398	392
763.037	474
772.664	426
782.278	426
791.879	640
801.467	612
811.044	410
820.608	308
830.16	274
839.699	360
849.226	328
858.741	290
868.243	298
877.731	312
887.209	258
896.674	294
906.128	346
915.569	294
924.997	254
934.414	240
943.818	270
953.211	276
962.59	286
971.958	318
981.314	448
990.659	1144
999.99	4182
1009.31	1588
1018.62	474
1027.91	1156
1037.2	1426
1046.47	490
1055.73	384
1064.98	426
1074.22	454
1083.44	426
1092.65	404
1101.86	428
1111.05	348
1120.22	310
1129.39	274
1138.54	304
1147.69	410
1156.82	962
1165.94	530
1175.05	606
1184.14	1186
1193.23	1122
1202.3	1176
1211.36	720
1220.41	480
1229.45	444
1238.48	356
1247.5	378
1256.5	354
1265.49	364
1274.48	348
1283.45	364
1292.41	360
1301.36	414
1310.29	414
1319.22	476
1328.13	502
1337.04	496
1345.93	374
1354.81	366
1363.68	358
1372.54	384
1381.38	356
1390.22	282
1399.05	278
1407.86	276
1416.66	260
1425.46	266
1434.24	332
1443.01	476
1451.77	624
1460.52	410
1469.25	280
1477.98	286
1486.7	294
1495.4	320
1504.1	264
1512.78	282
1521.45	266
1530.11	262
1538.76	274
1547.41	280
1556.03	292
1564.65	300
1573.26	384
1581.86	800
1590.45	588
1599.02	1238
1607.59	1286
1616.14	478
1624.69	366
1633.22	316
1641.75	344
1650.26	338
1658.76	306
1667.26	302
1675.74	268
1684.21	296
1692.67	298
1701.12	288
1709.56	282
1717.99	288
1726.41	272
1734.82	284
1743.22	280
1751.61	284
1759.99	284
1768.36	286
1776.71	290
1785.06	288
1793.4	310
1801.73	288
1810.04	302
1818.35	296
1826.65	298
1834.94	306
1843.21	306
1851.48	298
1859.74	282
1867.98	298
1876.22	292
1884.45	310
1892.67	310
1900.87	312
1909.07	330
1917.26	318
1925.43	312
1933.6	334
1941.76	320
1949.91	336
1958.05	322
1966.17	328
1974.29	328
1982.4	334
1990.5	324
1998.59	340
2006.67	312
2014.74	324
2022.8	340
2030.85	352
2038.89	354
2046.92	352
2054.94	330
2062.95	336
2070.96	334
2078.95	330
2086.93	340
2094.91	346
2102.87	346
2110.83	352
2118.77	328
2126.71	340
2134.63	354
2142.55	348
2150.46	358
2158.35	348
2166.24	364
2174.12	346
2181.99	362
2189.85	350
2197.7	348
2205.55	364
2213.38	366
2221.2	352
2229.02	360
2236.82	374
2244.62	360
2252.4	376
2260.18	362
2267.95	382
2275.71	350
2283.46	380
2291.2	382
2298.93	368
2306.65	368
2314.37	372
2322.07	374
2329.77	372
2337.45	366
2345.13	370
2352.8	378
2360.46	390
2368.11	364
2375.75	384
2383.38	380
2391.01	384
2398.62	368
2406.23	392
2413.82	382
2421.41	388
2428.99	370
2436.56	380
2444.12	370
2449.79	392

File: ps-ppo-7jan25-1,0000-map3_Y03_X08.txt
182.393	1006
192.79	922
203.174	950
213.542	1002
223.897	1074
234.238	802
244.566	510
254.878	384
265.178	338
275.463	304
285.734	274
295.992	242
306.236	234
316.467	238
326.684	220
336.887	220
347.075	224
357.251	206
367.413	206
377.562	232
387.697	266
397.819	292
407.926	318
418.02	268
428.101	236
438.169	224
448.223	204
458.264	176
468.291	188
478.306	176
488.307	162
498.294	182
508.269	190
518.23	206
528.177	208
538.113	264
548.034	240
557.942	254
567.838	252
577.72	250
587.589	214
597.446	224
607.289	268
617.119	408
626.936	536
636.741	218
646.533	166
656.313	158
666.078	164
675.831	154
685.571	158
695.299	170
705.014	212
714.716	212
724.406	292
734.082	260
743.746	380
753.398	416
763.037	484
772.664	422
782.278	432
791.879	626
801.467	598
811.044	392
820.608	286
830.16	262
839.699	338
849.226	320
858.741	270
868.243	294
877.731	280
887.209	280
896.674	256
906.128	346
915.569	288
924.997	246
934.414	246
943.818	256
953.211	262
962.59	296
971.958	312
981.314	466
990.659	1158
999.99	4148
1009.31	1550
1018.62	454
1027.91	1196
1037.2	1444
1046.47	480
1055.73	386
1064.98	394
1074.22	438
1083.44	408
1092.65	400
1101.86	412
1111.05	348
1120.22	316
1129.39	256
1138.54	280
1147.69	430
1156.82	958
1165.94	540
1175.05	608
1184.14	1174
1193.23	1108
1202.3	1156
1211.36	718
1220.41	468
1229.45	418
1238.48	376
1247.5	354
1256.5	360
1265.49	356
1274.48	334
1283.45	336
1292.41	382
1301.36	402
1310.29	418
1319.22	478
1328.13	542
1337.04	458
1345.93	386
1354.81	370
1363.68	366
1372.54	378
1381.38	360
1390.22	274
1399.05	256
1407.86	254
1416.66	264
1425.46	260
1434.24	316
1443.01	474
1451.77	594
1460.52	372
1469.25	280
1477.98	254
1486.7	258
1495.4	278
1504.1	278
1512.78	240
1521.45	270
1530.11	264
1538.76	282
1547.41	264
1556.03	294
1564.65	310
1573.26	350
1581.86	806
1590.45	616
1599.02	1210
1607.59	1336
1616.14	464
1624.69	362
1633.22	330
1641.75	326
1650.26	350
1658.76	282
1667.26	296
1675.74	298
1684.21	310
1692.67	276
1701.12	290
1709.56	310
1717.99	286
1726.41	288
1734.82	286
1743.22	268
1751.61	290
1759.99	274
1768.36	284
1776.71	278
1785.06	284
1793.4	298
1801.73	286
1810.04	296
1818.35	314
1826.65	288
1834.94	286
1843.21	292
1851.48	304
1859.74	294
1867.98	292
1876.22	296
1884.45	294
1892.67	312
1900.87	318
1909.07	314
1917.26	320
1925.43	328
1933.6	306
1941.76	308
1949.91	324
1958.05	314
1966.17	322
1974.29	306
1982.4	312
1990.5	312
1998.59	292
2006.67	300
2014.74	306
2022.8	326
2030.85	312
2038.89	314
2046.92	330
2054.94	318
2062.95	332
2070.96	320
2078.95	330
2086.93	328
2094.91	344
2102.87	330
2110.83	326
2118.77	296
2126.71	322
2134.63	320
2142.55	334
2150.46	344
2158.35	316
2166.24	340
2174.12	324
2181.99	344
2189.85	344
2197.7	332
2205.55	340
2213.38	330
2221.2	332
2229.02	352
2236.82	356
2244.62	340
2252.4	326
2260.18	338
2267.95	364
2275.71	346
2283.46	350
2291.2	334
2298.93	364
2306.65	360
2314.37	354
2322.07	360
2329.77	350
2337.45	336
2345.13	344
2352.8	382
2360.46	352
2368.11	366
2375.75	356
2383.38	366
2391.01	358
2398.62	352
2406.23	348
2413.82	362
2421.41	366
2428.99	348
2436.56	374
2444.12	374
2449.79	366

File: ps-ppo-7jan25-1,0000-map3_Y04_X02.txt
182.393	1038
192.79	972
203.174	950
213.542	1034
223.897	1106
234.238	840
244.566	526
254.878	394
265.178	356
275.463	346
285.734	310
295.992	266
306.236	268
316.467	252
326.684	248
336.887	252
347.075	234
357.251	232
367.413	228
377.562	260
387.697	290
397.819	314
407.926	380
418.02	284
428.101	252
438.169	256
448.223	238
458.264	198
468.291	196
478.306	204
488.307	206
498.294	188
508.269	208
518.23	226
528.177	240
538.113	292
548.034	282
557.942	266
567.838	274
577.72	288
587.589	220
597.446	226
607.289	292
617.119	452
626.936	548
636.741	262
646.533	210
656.313	214
666.078	200
675.831	198
685.571	200
695.299	212
705.014	262
714.716	244
724.406	320
734.082	318
743.746	410
753.398	442
763.037	504
772.664	436
782.278	468
791.879	692
801.467	662
811.044	432
820.608	312
830.16	298
839.699	374
849.226	354
858.741	324
868.243	324
877.731	338
887.209	306
896.674	334
906.128	390
915.569	360
924.997	290
934.414	298
943.818	300
953.211	304
962.59	332
971.958	344
981.314	494
990.659	1198
999.99	4270
1009.31	1602
1018.62	472
1027.91	1210
1037.2	1462
1046.47	520
1055.73	432
1064.98	466
1074.22	450
1083.44	434
1092.65	442
1101.86	434
1111.05	368
1120.22	324
1129.39	282
1138.54	342
1147.69	440
1156.82	992
1165.94	560
1175.05	624
1184.14	1270
1193.23	1138
1202.3	1134
1211.36	746
1220.41	502
1229.45	432
1238.48	398
1247.5	386
1256.5	376
1265.49	386
1274.48	352
1283.45	344
1292.41	404
1301.36	412
1310.29	428
1319.22	502
1328.13	540
1337.04	504
1345.93	396
1354.81	366
1363.68	388
1372.54	402
1381.38	346
1390.22	306
1399.05	288
1407.86	310
1416.66	262
1425.46	280
1434.24	342
1443.01	504
1451.77	598
1460.52	408
1469.25	292
1477.98	294
1486.7	284
1495.4	294
1504.1	268
1512.78	260
1521.45	284
1530.11	282
1538.76	278
1547.41	294
1556.03	300
1564.65	330
1573.26	394
1581.86	814
1590.45	608
1599.02	1240
1607.59	1294
1616.14	484
1624.69	360
1633.22	312
1641.75	318
1650.26	342
1658.76	316
1667.26	304
1675.74	310
1684.21	296
1692.67	310
1701.12	292
1709.56	298
1717.99	288
1726.41	274
1734.82	282
1743.22	296
1751.61	290
1759.99	300
1768.36	296
1776.71	288
1785.06	282
1793.4	292
1801.73	306
1810.04	302
1818.35	310
1826.65	306
1834.94	298
1843.21	284
1851.48	282
1859.74	306
1867.98	308
1876.22	298
1884.45	300
1892.67	294
1900.87	310
1909.07	310
1917.26	306
1925.43	298
1933.6	308
1941.76	326
1949.91	324
1958.05	344
1966.17	320
1974.29	312
1982.4	322
1990.5	306
1998.59	324
2006.67	316
2014.74	320
2022.8	320
2030.85	322
2038.89	328
2046.92	336
2054.94	324
2062.95	306
2070.96	314
2078.95	340
2086.93	330
2094.91	320
2102.87	310
2110.83	324
2118.77	326
2126.71	330
2134.63	310
2142.55	312
2150.46	332
2158.35	326
2166.24	328
2174.12	314
2181.99	328
2189.85	342
2197.7	336
2205.55	336
2213.38	344
2221.2	346
2229.02	316
2236.82	346
2244.62	336
2252.4	340
2260.18	332
2267.95	328
2275.71	328
2283.46	334
2291.2	342
2298.93	350
2306.65	366
2314.37	344
2322.07	368
2329.77	352
2337.45	358
2345.13	346
2352.8	364
2360.46	352
2368.11	350
2375.75	330
2383.38	362
2391.01	348
2398.62	352
2406.23	352
2413.82	340
2421.41	382
2428.99	348
2436.56	366
2444.12	366
2449.79	348

File: ps-ppo-7jan25-1,0000-map3_Y04_X05.txt
182.393	1002
192.79	940
203.174	920
213.542	1054
223.897	1032
234.238	832
244.566	512
254.878	366
265.178	334
275.463	322
285.734	282
295.992	244
306.236	230
316.467	228
326.684	240
336.887	228
347.075	224
357.251	196
367.413	218
377.562	240
387.697	250
397.819	300
407.926	346
418.02	260
428.101	220
438.169	220
448.223	200
458.264	178
468.291	178
478.306	172
488.307	160
498.294	172
508.269	172
518.23	190
528.177	204
538.113	242
548.034	242
557.942	236
567.838	246
577.72	228
587.589	210
597.446	222
607.289	262
617.119	416
626.936	538
636.741	216
646.533	174
656.313	168
666.078	166
675.831	160
685.571	168
695.299	182
705.014	220
714.716	216
724.406	288
734.082	284
743.746	388
753.398	438
763.037	464
772.664	414
782.278	458
791.879	628
801.467	634
811.044	400
820.608	300
830.16	260
839.699	334
849.226	332
858.741	306
868.243	294
877.731	284
887.209	276
896.674	290
906.128	338
915.569	294
924.997	252
934.414	248
943.818	254
953.211	266
962.59	300
971.958	330
981.314	458
990.659	1172
999.99	4326
1009.31	1554
1018.62	456
1027.91	1190
1037.2	1392
1046.47	464
1055.73	388
1064.98	410
1074.22	442
1083.44	414
1092.65	404
1101.86	408
1111.05	344
1120.22	282
1129.39	260
1138.54	312
1147.69	408
1156.82	984
1165.94	484
1175.05	590
1184.14	1156
1193.23	1124
1202.3	1102
1211.36	702
1220.41	486
1229.45	420
1238.48	356
1247.5	334
1256.5	332
1265.49	344
1274.48	330
1283.45	330
1292.41	358
1301.36	412
1310.29	390
1319.22	450
1328.13	520
1337.04	472
1345.93	366
1354.81	376
1363.68	352
1372.54	364
1381.38	324
1390.22	264
1399.05	250
1407.86	260
1416.66	254
1425.46	258
1434.24	286
1443.01	468
1451.77	582
1460.52	340
1469.25	272
1477.98	252
1486.7	250
1495.4	262
1504.1	254
1512.78	248
1521.45	258
1530.11	244
1538.76	250
1547.41	272
1556.03	284
1564.65	300
1573.26	354
1581.86	736
1590.45	568
1599.02	1206
1607.59	1274
1616.14	460
1624.69	330
1633.22	310
1641.75	314
1650.26	310
1658.76	288
1667.26	262
1675.74	264
1684.21	276
1692.67	264
1701.12	264
1709.56	268
1717.99	258
1726.41	278
1734.82	264
1743.22	262
1751.61	264
1759.99	276
1768.36	260
1776.71	266
1785.06	276
1793.4	264
1801.73	268
1810.04	278
1818.35	268
1826.65	276
1834.94	274
1843.21	284
1851.48	244
1859.74	282
1867.98	270
1876.22	284
1884.45	276
1892.67	274
1900.87	298
1909.07	290
1917.26	302
1925.43	294
1933.6	290
1941.76	286
1949.91	290
1958.05	288
1966.17	310
1974.29	264
1982.4	298
1990.5	302
1998.59	282
2006.67	306
2014.74	298
2022.8	308
2030.85	298
2038.89	298
2046.92	302
2054.94	300
2062.95	310
2070.96	316
2078.95	312
2086.93	308
2094.91	318
2102.87	288
2110.83	298
2118.77	322
2126.71	306
2134.63	316
2142.55	308
2150.46	330
2158.35	310
2166.24	318
2174.12	328
2181.99	314
2189.85	318
2197.7	310
2205.55	326
2213.38	322
2221.2	324
2229.02	332
2236.82	328
2244.62	324
2252.4	330
2260.18	330
2267.95	334
2275.71	334
2283.46	322
2291.2	326
2298.93	344
2306.65	342
2314.37	336
2322.07	350
2329.77	312
2337.45	324
2345.13	330
2352.8	340
2360.46	350
2368.11	328
2375.75	346
2383.38	352
2391.01	336
2398.62	330
2406.23	344
2413.82	356
2421.41	336
2428.99	340
2436.56	354
2444.12	340
2449.79	364

File: ps-ppo-7jan25-1,0000-map3_Y05_X05.txt
182.393	968
192.79	910
203.174	910
213.542	1004
223.897	1054
234.238	808
244.566	476
254.878	344
265.178	304
275.463	278
285.734	236
295.992	218
306.236	202
316.467	202
326.684	200
336.887	206
347.075	202
357.251	174
367.413	186
377.562	194
387.697	220
397.819	256
407.926	306
418.02	248
428.101	210
438.169	202
448.223	176
458.264	154
468.291	158
478.306	158
488.307	144
498.294	152
508.269	160
518.23	170
528.177	186
538.113	218
548.034	236
557.942	220
567.838	218
577.72	220
587.589	192
597.446	180
607.289	220
617.119	380
626.936	490
636.741	198
646.533	154
656.313	144
666.078	150
675.831	142
685.571	152
695.299	162
705.014	186
714.716	186
724.406	258
734.082	226
743.746	334
753.398	412
763.037	436
772.664	398
782.278	422
791.879	618
801.467	596
811.044	374
820.608	244
830.16	236
839.699	316
849.226	314
858.741	278
868.243	268
877.731	274
887.209	268
896.674	268
906.128	312
915.569	262
924.997	232
934.414	222
943.818	248
953.211	226
962.59	286
971.958	300
981.314	426
990.659	1154
999.99	4116
1009.31	1568
1018.62	432
1027.91	1180
1037.2	1430
1046.47	442
1055.73	386
1064.98	408
1074.22	410
1083.44	392
1092.65	396
1101.86	398
1111.05	324
1120.22	288
1129.39	242
1138.54	258
1147.69	396
1156.82	926
1165.94	470
1175.05	618
1184.14	1166
1193.23	1086
1202.3	1136
1211.36	710
1220.41	448
1229.45	406
1238.48	334
1247.5	338
1256.5	318
1265.49	326
1274.48	306
1283.45	338
1292.41	340
1301.36	386
1310.29	380
1319.22	448
1328.13	488
1337.04	460
1345.93	370
1354.81	352
1363.68	350
1372.54	352
1381.38	314
1390.22	258
1399.05	248
1407.86	256
1416.66	230
1425.46	236
1434.24	288
1443.01	470
1451.77	552
1460.52	356
1469.25	262
1477.98	270
1486.7	246
1495.4	288
1504.1	236
1512.78	240
1521.45	250
1530.11	244
1538.76	242
1547.41	254
1556.03	262
1564.65	280
1573.26	360
1581.86	786
1590.45	578
1599.02	1182
1607.59	1282
1616.14	478
1624.69	336
1633.22	292
1641.75	312
1650.26	322
1658.76	284
1667.26	264
1675.74	272
1684.21	274
1692.67	280
1701.12	254
1709.56	246
1717.99	252
1726.41	252
1734.82	250
1743.22	256
1751.61	256
1759.99	270
1768.36	256
1776.71	260
1785.06	278
1793.4	270
1801.73	266
1810.04	264
1818.35	274
1826.65	278
1834.94	274
1843.21	280
1851.48	254
1859.74	272
1867.98	278
1876.22	278
1884.45	268
1892.67	274
1900.87	286
1909.07	288
1917.26	284
1925.43	272
1933.6	302
1941.76	302
1949.91	288
1958.05	292
1966.17	290
1974.29	274
1982.4	292
1990.5	280
1998.59	296
2006.67	286
2014.74	288
2022.8	306
2030.85	298
2038.89	302
2046.92	288
2054.94	304
2062.95	314
2070.96	302
2078.95	284
2086.93	282
2094.91	326
2102.87	312
2110.83	308
2118.77	314
2126.71	316
2134.63	310
2142.55	320
2150.46	314
2158.35	320
2166.24	304
2174.12	306
2181.99	318
2189.85	330
2197.7	314
2205.55	322
2213.38	322
2221.2	320
2229.02	308
2236.82	316
2244.62	316
2252.4	336
2260.18	314
2267.95	328
2275.71	318
2283.46	316
2291.2	320
2298.93	316
2306.65	322
2314.37	336
2322.07	316
2329.77	308
2337.45	334
2345.13	310
2352.8	324
2360.46	322
2368.11	342
2375.75	348
2383.38	314
2391.01	322
2398.62	330
2406.23	338
2413.82	336
2421.41	342
2428.99	348
2436.56	356
2444.12	332
2449.79	346

File: ps-ppo-7jan25-1,0000-map3_Y05_X07.txt
182.393	1024
192.79	932
203.174	956
213.542	1046
223.897	1088
234.238	816
244.566	530
254.878	414
265.178	346
275.463	318
285.734	298
295.992	260
306.236	240
316.467	260
326.684	252
336.887	246
347.075	224
357.251	252
367.413	242
377.562	264
387.697	286
397.819	292
407.926	370
418.02	284
428.101	244
438.169	250
448.223	228
458.264	184
468.291	204
478.306	194
488.307	184
498.294	192
508.269	228
518.23	216
528.177	230
538.113	238
548.034	292
557.942	244
567.838	256
577.72	262
587.589	228
597.446	226
607.289	288
617.119	434
626.936	576
636.741	252
646.533	212
656.313	200
666.078	188
675.831	194
685.571	180
695.299	194
705.014	256
714.716	230
724.406	316
734.082	302
743.746	404
753.398	438
763.037	514
772.664	440
782.278	510
791.879	686
801.467	612
811.044	410
820.608	310
830.16	294
839.699	380
849.226	382
858.741	296
868.243	326
877.731	322
887.209	304
896.674	300
906.128	386
915.569	296
924.997	268
934.414	284
943.818	282
953.211	292
962.59	312
971.958	348
981.314	486
990.659	1204
999.99	4182
1009.31	1570
1018.62	480
1027.91	1206
1037.2	1448
1046.47	472
1055.73	424
1064.98	450
1074.22	454
1083.44	438
1092.65	430
1101.86	440
1111.05	380
1120.22	320
1129.39	286
1138.54	312
1147.69	428
1156.82	1000
1165.94	528
1175.05	640
1184.14	1212
1193.23	1144
1202.3	1154
1211.36	708
1220.41	516
1229.45	432
1238.48	400
1247.5	382
1256.5	368
1265.49	334
1274.48	348
1283.45	356
1292.41	380
1301.36	422
1310.29	424
1319.22	470
1328.13	518
1337.04	512
1345.93	408
1354.81	384
1363.68	370
1372.54	370
1381.38	320
1390.22	294
1399.05	296
1407.86	294
1416.66	264
1425.46	276
1434.24	330
1443.01	504
1451.77	596
1460.52	370
1469.25	294
1477.98	292
1486.7	284
1495.4	304
1504.1	280
1512.78	278
1521.45	268
1530.11	280
1538.76	272
1547.41	276
1556.03	294
1564.65	312
1573.26	378
1581.86	816
1590.45	606
1599.02	1232
1607.59	1306
1616.14	498
1624.69	366
1633.22	336
1641.75	326
1650.26	346
1658.76	294
1667.26	276
1675.74	296
1684.21	310
1692.67	308
1701.12	280
1709.56	282
1717.99	282
1726.41	290
1734.82	284
1743.22	290
1751.61	300
1759.99	290
1768.36	284
1776.71	290
1785.06	288
1793.4	296
1801.73	296
1810.04	300
1818.35	312
1826.65	306
1834.94	304
1843.21	312
1851.48	300
1859.74	302
1867.98	300
1876.22	300
1884.45	308
1892.67	324
1900.87	302
1909.07	314
1917.26	306
1925.43	314
1933.6	320
1941.76	316
1949.91	328
1958.05	300
1966.17	316
1974.29	310
1982.4	336
1990.5	302
1998.59	320
2006.67	310
2014.74	322
2022.8	332
2030.85	304
2038.89	334
2046.92	336
2054.94	326
2062.95	330
2070.96	324
2078.95	322
2086.93	318
2094.91	330
2102.87	308
2110.83	316
2118.77	334
2126.71	328
2134.63	352
2142.55	344
2150.46	324
2158.35	310
2166.24	340
2174.12	342
2181.99	340
2189.85	330
2197.7	358
2205.55	348
2213.38	336
2221.2	318
2229.02	336
2236.82	342
2244.62	344
2252.4	358
2260.18	344
2267.95	356
2275.71	338
2283.46	328
2291.2	354
2298.93	360
2306.65	346
2314.37	350
2322.07	352
2329.77	354
2337.45	354
2345.13	348
2352.8	354
2360.46	360
2368.11	348
2375.75	354
2383.38	350
2391.01	352
2398.62	360
2406.23	352
2413.82	364
2421.41	360
2428.99	370
2436.56	374
2444.12	368
2449.79	346

File: ps-ppo-7jan25-1,0000-map3_Y05_X10.txt
182.393	1068
192.79	956
203.174	942
213.542	1056
223.897	1056
234.238	812
244.566	544
254.878	418
265.178	344
275.463	330
285.734	294
295.992	258
306.236	260
316.467	260
326.684	270
336.887	246
347.075	258
357.251	228
367.413	244
377.562	268
387.697	276
397.819	306
407.926	352
418.02	294
428.101	254
438.169	252
448.223	234
458.264	202
468.291	200
478.306	210
488.307	190
498.294	208
508.269	206
518.23	216
528.177	240
538.113	254
548.034	274
557.942	286
567.838	262
577.72	268
587.589	222
597.446	234
607.289	298
617.119	436
626.936	542
636.741	230
646.533	194
656.313	192
666.078	190
675.831	186
685.571	190
695.299	184
705.014	234
714.716	234
724.406	324
734.082	304
743.746	386
753.398	440
763.037	520
772.664	440
782.278	470
791.879	678
801.467	638
811.044	420
820.608	318
830.16	266
839.699	368
849.226	350
858.741	312
868.243	320
877.731	312
887.209	314
896.674	308
906.128	362
915.569	308
924.997	272
934.414	282
943.818	270
953.211	294
962.59	326
971.958	338
981.314	500
990.659	1198
999.99	4190
1009.31	1612
1018.62	476
1027.91	1152
1037.2	1442
1046.47	512
1055.73	404
1064.98	438
1074.22	446
1083.44	452
1092.65	448
1101.86	440
1111.05	376
1120.22	324
1129.39	304
1138.54	318
1147.69	442
1156.82	1004
1165.94	532
1175.05	632
1184.14	1198
1193.23	1114
1202.3	1166
1211.36	754
1220.41	508
1229.45	452
1238.48	386
1247.5	386
1256.5	366
1265.49	386
1274.48	362
1283.45	382
1292.41	392
1301.36	432
1310.29	422
1319.22	480
1328.13	552
1337.04	502
1345.93	410
1354.81	388
1363.68	398
1372.54	386
1381.38	362
1390.22	292
1399.05	286
1407.86	288
1416.66	284
1425.46	274
1434.24	344
1443.01	496
1451.77	618
1460.52	394
1469.25	300
1477.98	292
1486.7	278
1495.4	302
1504.1	262
1512.78	280
1521.45	282
1530.11	296
1538.76	294
1547.41	298
1556.03	302
1564.65	330
1573.26	406
1581.86	822
1590.45	626
1599.02	1268
1607.59	1312
1616.14	494
1624.69	374
1633.22	352
1641.75	352
1650.26	342
1658.76	318
1667.26	298
1675.74	300
1684.21	294
1692.67	296
1701.12	310
1709.56	284
1717.99	310
1726.41	300
1734.82	308
1743.22	288
1751.61	294
1759.99	290
1768.36	296
1776.71	286
1785.06	318
1793.4	290
1801.73	288
1810.04	308
1818.35	286
1826.65	298
1834.94	308
1843.21	300
1851.48	298
1859.74	302
1867.98	338
1876.22	312
1884.45	308
1892.67	306
1900.87	316
1909.07	332
1917.26	314
1925.43	324
1933.6	302
1941.76	310
1949.91	320
1958.05	340
1966.17	320
1974.29	314
1982.4	318
1990.5	334
1998.59	310
2006.67	318
2014.74	328
2022.8	326
2030.85	310
2038.89	332
2046.92	334
2054.94	324
2062.95	340
2070.96	342
2078.95	334
2086.93	334
2094.91	342
2102.87	314
2110.83	330
2118.77	360
2126.71	342
2134.63	330
2142.55	340
2150.46	336
2158.35	338
2166.24	360
2174.12	346
2181.99	336
2189.85	332
2197.7	354
2205.55	362
2213.38	352
2221.2	348
2229.02	332
2236.82	348
2244.62	336
2252.4	348
2260.18	356
2267.95	352
2275.71	326
2283.46	350
2291.2	346
2298.93	354
2306.65	352
2314.37	356
2322.07	340
2329.77	364
2337.45	366
2345.13	366
2352.8	356
2360.46	360
2368.11	370
2375.75	350
2383.38	356
2391.01	362
2398.62	370
2406.23	352
2413.82	344
2421.41	360
2428.99	356
2436.56	382
2444.12	354
2449.79	364

File: ps-ppo-7jan25-1,0000-map3_Y06_X04.txt
182.393	1012
192.79	914
203.174	948
213.542	1024
223.897	1080
234.238	822
244.566	502
254.878	380
265.178	330
275.463	304
285.734	264
295.992	242
306.236	224
316.467	224
326.684	226
336.887	222
347.075	222
357.251	194
367.413	206
377.562	226
387.697	260
397.819	264
407.926	338
418.02	286
428.101	242
438.169	220
448.223	192
458.264	186
468.291	162
478.306	162
488.307	164
498.294	170
508.269	180
518.23	190
528.177	208
538.113	236
548.034	236
557.942	240
567.838	230
577.72	222
587.589	208
597.446	190
607.289	246
617.119	396
626.936	504
636.741	220
646.533	166
656.313	152
666.078	160
675.831	154
685.571	148
695.299	162
705.014	224
714.716	186
724.406	278
734.082	266
743.746	358
753.398	406
763.037	456
772.664	386
782.278	424
791.879	638
801.467	622
811.044	390
820.608	284
830.16	238
839.699	320
849.226	328
858.741	282
868.243	284
877.731	250
887.209	260
896.674	262
906.128	330
915.569	280
924.997	248
934.414	230
943.818	236
953.211	234
962.59	282
971.958	308
981.314	436
990.659	1140
999.99	4236
1009.31	1554
1018.62	444
1027.91	1170
1037.2	1402
1046.47	462
1055.73	366
1064.98	396
1074.22	424
1083.44	394
1092.65	400
1101.86	394
1111.05	336
1120.22	276
1129.39	242
1138.54	278
1147.69	398
1156.82	928
1165.94	490
1175.05	616
1184.14	1216
1193.23	1068
1202.3	1144
1211.36	698
1220.41	472
1229.45	406
1238.48	352
1247.5	338
1256.5	328
1265.49	342
1274.48	324
1283.45	344
1292.41	366
1301.36	394
1310.29	390
1319.22	454
1328.13	494
1337.04	476
1345.93	374
1354.81	360
1363.68	362
1372.54	354
1381.38	318
1390.22	246
1399.05	256
1407.86	256
1416.66	234
1425.46	260
1434.24	296
1443.01	490
1451.77	574
1460.52	354
1469.25	280
1477.98	242
1486.7	256
1495.4	284
1504.1	262
1512.78	250
1521.45	250
1530.11	234
1538.76	236
1547.41	252
1556.03	274
1564.65	308
1573.26	352
1581.86	794
1590.45	570
1599.02	1202
1607.59	1276
1616.14	442
1624.69	352
1633.22	308
1641.75	310
1650.26	316
1658.76	280
1667.26	270
1675.74	292
1684.21	288
1692.67	280
1701.12	280
1709.56	276
1717.99	248
1726.41	244
1734.82	256
1743.22	270
1751.61	268
1759.99	274
1768.36	266
1776.71	274
1785.06	270
1793.4	286
1801.73	256
1810.04	280
1818.35	264
1826.65	280
1834.94	282
1843.21	276
1851.48	270
1859.74	274
1867.98	278
1876.22	296
1884.45	270
1892.67	282
1900.87	284
1909.07	298
1917.26	288
1925.43	302
1933.6	300
1941.76	282
1949.91	300
1958.05	298
1966.17	282
1974.29	296
1982.4	290
1990.5	296
1998.59	294
2006.67	302
2014.74	302
2022.8	280
2030.85	300
2038.89	292
2046.92	298
2054.94	326
2062.95	278
2070.96	306
2078.95	316
2086.93	306
2094.91	286
2102.87	302
2110.83	322
2118.77	326
2126.71	320
2134.63	312
2142.55	344
2150.46	316
2158.35	308
2166.24	312
2174.12	318
2181.99	322
2189.85	318
2197.7	324
2205.55	308
2213.38	320
2221.2	308
2229.02	336
2236.82	324
2244.62	332
2252.4	316
2260.18	336
2267.95	314
2275.71	330
2283.46	324
2291.2	320
2298.93	340
2306.65	342
2314.37	342
2322.07	308
2329.77	328
2337.45	342
2345.13	326
2352.8	342
2360.46	338
2368.11	346
2375.75	332
2383.38	332
2391.01	346
2398.62	338
2406.23	312
2413.82	328
2421.41	344
2428.99	348
2436.56	348
2444.12	346
2449.79	366