Folder: NRC_SU25_Spectral_Classification/Mixture_Classification/Jesse_Dataset_v2/Pure Raman/Polystyrene/633nm (part 8)

File: ps-ppo-7jan25-1,0000-map3_Y10_X02.txt
182.393	1020
192.79	936
203.174	944
213.542	1020
223.897	1068
234.238	814
244.566	538
254.878	366
265.178	340
275.463	314
285.734	290
295.992	246
306.236	218
316.467	234
326.684	244
336.887	220
347.075	218
357.251	216
367.413	220
377.562	230
387.697	262
397.819	294
407.926	374
418.02	278
428.101	246
438.169	206
448.223	206
458.264	170
468.291	178
478.306	174
488.307	168
498.294	182
508.269	188
518.23	194
528.177	220
538.113	248
548.034	252
557.942	264
567.838	248
577.72	230
587.589	196
597.446	200
607.289	268
617.119	428
626.936	516
636.741	202
646.533	178
656.313	166
666.078	156
675.831	170
685.571	154
695.299	164
705.014	194
714.716	200
724.406	286
734.082	262
743.746	364
753.398	400
763.037	464
772.664	440
782.278	446
791.879	634
801.467	618
811.044	364
820.608	284
830.16	258
839.699	332
849.226	328
858.741	290
868.243	274
877.731	258
887.209	276
896.674	278
906.128	334
915.569	310
924.997	246
934.414	248
943.818	264
953.211	248
962.59	294
971.958	322
981.314	450
990.659	1178
999.99	4212
1009.31	1550
1018.62	446
1027.91	1180
1037.2	1396
1046.47	472
1055.73	382
1064.98	384
1074.22	440
1083.44	426
1092.65	402
1101.86	396
1111.05	340
1120.22	300
1129.39	268
1138.54	278
1147.69	402
1156.82	956
1165.94	500
1175.05	600
1184.14	1166
1193.23	1100
1202.3	1106
1211.36	696
1220.41	456
1229.45	430
1238.48	368
1247.5	334
1256.5	328
1265.49	324
1274.48	330
1283.45	312
1292.41	368
1301.36	396
1310.29	408
1319.22	464
1328.13	516
1337.04	454
1345.93	396
1354.81	380
1363.68	378
1372.54	378
1381.38	346
1390.22	266
1399.05	260
1407.86	270
1416.66	260
1425.46	258
1434.24	318
1443.01	468
1451.77	572
1460.52	378
1469.25	288
1477.98	272
1486.7	274
1495.4	292
1504.1	250
1512.78	264
1521.45	264
1530.11	278
1538.76	258
1547.41	272
1556.03	296
1564.65	300
1573.26	368
1581.86	792
1590.45	604
1599.02	1204
1607.59	1312
1616.14	450
1624.69	334
1633.22	310
1641.75	320
1650.26	328
1658.76	284
1667.26	268
1675.74	290
1684.21	290
1692.67	286
1701.12	296
1709.56	274
1717.99	274
1726.41	260
1734.82	266
1743.22	278
1751.61	280
1759.99	278
1768.36	286
1776.71	278
1785.06	262
1793.4	270
1801.73	290
1810.04	274
1818.35	294
1826.65	294
1834.94	282
1843.21	286
1851.48	302
1859.74	272
1867.98	264
1876.22	290
1884.45	288
1892.67	288
1900.87	278
1909.07	290
1917.26	296
1925.43	276
1933.6	308
1941.76	294
1949.91	280
1958.05	304
1966.17	308
1974.29	302
1982.4	294
1990.5	298
1998.59	322
2006.67	302
2014.74	302
2022.8	316
2030.85	294
2038.89	326
2046.92	312
2054.94	292
2062.95	316
2070.96	302
2078.95	312
2086.93	296
2094.91	306
2102.87	320
2110.83	314
2118.77	322
2126.71	304
2134.63	326
2142.55	322
2150.46	326
2158.35	334
2166.24	308
2174.12	328
2181.99	328
2189.85	316
2197.7	328
2205.55	328
2213.38	314
2221.2	316
2229.02	326
2236.82	326
2244.62	304
2252.4	322
2260.18	330
2267.95	338
2275.71	340
2283.46	312
2291.2	324
2298.93	328
2306.65	340
2314.37	358
2322.07	340
2329.77	350
2337.45	320
2345.13	324
2352.8	354
2360.46	330
2368.11	334
2375.75	342
2383.38	322
2391.01	336
2398.62	334
2406.23	344
2413.82	324
2421.41	336
2428.99	334
2436.56	328
2444.12	360
2449.79	348

File: ps-ppo-7jan25-1,0000-map3_Y10_X05.txt
182.393	1016
192.79	916
203.174	930
213.542	1058
223.897	1072
234.238	826
244.566	540
254.878	384
265.178	346
275.463	332
285.734	294
295.992	264
306.236	224
316.467	250
326.684	242
336.887	230
347.075	224
357.251	226
367.413	238
377.562	240
387.697	254
397.819	282
407.926	350
418.02	292
428.101	248
438.169	230
448.223	218
458.264	200
468.291	178
478.306	188
488.307	188
498.294	178
508.269	200
518.23	192
528.177	212
538.113	238
548.034	238
557.942	258
567.838	248
577.72	250
587.589	202
597.446	214
607.289	258
617.119	406
626.936	528
636.741	222
646.533	178
656.313	176
666.078	162
675.831	162
685.571	158
695.299	176
705.014	208
714.716	218
724.406	294
734.082	268
743.746	376
753.398	402
763.037	460
772.664	424
782.278	438
791.879	652
801.467	612
811.044	386
820.608	298
830.16	258
839.699	342
849.226	336
858.741	292
868.243	304
877.731	292
887.209	280
896.674	286
906.128	348
915.569	286
924.997	252
934.414	232
943.818	252
953.211	284
962.59	272
971.958	310
981.314	442
990.659	1140
999.99	4216
1009.31	1534
1018.62	472
1027.91	1190
1037.2	1380
1046.47	460
1055.73	400
1064.98	392
1074.22	438
1083.44	394
1092.65	412
1101.86	432
1111.05	346
1120.22	316
1129.39	274
1138.54	288
1147.69	410
1156.82	934
1165.94	510
1175.05	630
1184.14	1186
1193.23	1148
1202.3	1160
1211.36	714
1220.41	466
1229.45	418
1238.48	360
1247.5	358
1256.5	334
1265.49	352
1274.48	334
1283.45	344
1292.41	360
1301.36	384
1310.29	408
1319.22	478
1328.13	512
1337.04	500
1345.93	384
1354.81	372
1363.68	376
1372.54	372
1381.38	340
1390.22	286
1399.05	266
1407.86	260
1416.66	242
1425.46	262
1434.24	324
1443.01	494
1451.77	584
1460.52	364
1469.25	278
1477.98	278
1486.7	282
1495.4	306
1504.1	256
1512.78	262
1521.45	286
1530.11	268
1538.76	286
1547.41	264
1556.03	272
1564.65	302
1573.26	376
1581.86	836
1590.45	584
1599.02	1232
1607.59	1300
1616.14	462
1624.69	366
1633.22	312
1641.75	336
1650.26	348
1658.76	276
1667.26	282
1675.74	292
1684.21	288
1692.67	284
1701.12	292
1709.56	282
1717.99	278
1726.41	268
1734.82	296
1743.22	262
1751.61	282
1759.99	260
1768.36	278
1776.71	270
1785.06	276
1793.4	288
1801.73	260
1810.04	280
1818.35	274
1826.65	296
1834.94	290
1843.21	272
1851.48	296
1859.74	292
1867.98	282
1876.22	288
1884.45	312
1892.67	288
1900.87	296
1909.07	290
1917.26	300
1925.43	318
1933.6	302
1941.76	284
1949.91	306
1958.05	304
1966.17	312
1974.29	314
1982.4	292
1990.5	296
1998.59	314
2006.67	310
2014.74	312
2022.8	308
2030.85	322
2038.89	308
2046.92	310
2054.94	312
2062.95	322
2070.96	308
2078.95	326
2086.93	316
2094.91	316
2102.87	312
2110.83	318
2118.77	330
2126.71	322
2134.63	324
2142.55	322
2150.46	320
2158.35	314
2166.24	332
2174.12	328
2181.99	326
2189.85	318
2197.7	346
2205.55	340
2213.38	334
2221.2	320
2229.02	324
2236.82	308
2244.62	328
2252.4	312
2260.18	332
2267.95	336
2275.71	324
2283.46	344
2291.2	328
2298.93	326
2306.65	330
2314.37	332
2322.07	346
2329.77	330
2337.45	340
2345.13	344
2352.8	348
2360.46	340
2368.11	348
2375.75	332
2383.38	342
2391.01	340
2398.62	338
2406.23	330
2413.82	342
2421.41	354
2428.99	358
2436.56	336
2444.12	336
2449.79	354

File: ps-ppo-7jan25-1,0000-map3_Y10_X06.txt
182.393	1010
192.79	930
203.174	932
213.542	1022
223.897	1056
234.238	836
244.566	516
254.878	358
265.178	324
275.463	322
285.734	276
295.992	226
306.236	228
316.467	228
326.684	228
336.887	230
347.075	214
357.251	222
367.413	196
377.562	234
387.697	262
397.819	266
407.926	330
418.02	268
428.101	222
438.169	216
448.223	208
458.264	180
468.291	172
478.306	174
488.307	172
498.294	168
508.269	180
518.23	188
528.177	208
538.113	248
548.034	248
557.942	242
567.838	234
577.72	244
587.589	200
597.446	200
607.289	254
617.119	400
626.936	528
636.741	198
646.533	176
656.313	158
666.078	150
675.831	164
685.571	154
695.299	168
705.014	204
714.716	206
724.406	274
734.082	268
743.746	394
753.398	414
763.037	462
772.664	402
782.278	412
791.879	618
801.467	614
811.044	394
820.608	286
830.16	250
839.699	316
849.226	322
858.741	268
868.243	296
877.731	282
887.209	260
896.674	282
906.128	330
915.569	274
924.997	228
934.414	232
943.818	240
953.211	252
962.59	278
971.958	300
981.314	448
990.659	1196
999.99	4266
1009.31	1500
1018.62	468
1027.91	1192
1037.2	1356
1046.47	478
1055.73	376
1064.98	408
1074.22	404
1083.44	404
1092.65	406
1101.86	396
1111.05	348
1120.22	294
1129.39	252
1138.54	278
1147.69	380
1156.82	924
1165.94	462
1175.05	616
1184.14	1182
1193.23	1120
1202.3	1110
1211.36	674
1220.41	464
1229.45	406
1238.48	368
1247.5	344
1256.5	342
1265.49	346
1274.48	320
1283.45	324
1292.41	350
1301.36	374
1310.29	408
1319.22	448
1328.13	534
1337.04	480
1345.93	386
1354.81	352
1363.68	352
1372.54	386
1381.38	334
1390.22	266
1399.05	268
1407.86	258
1416.66	242
1425.46	238
1434.24	302
1443.01	494
1451.77	586
1460.52	362
1469.25	278
1477.98	258
1486.7	232
1495.4	286
1504.1	228
1512.78	262
1521.45	268
1530.11	238
1538.76	274
1547.41	284
1556.03	280
1564.65	300
1573.26	346
1581.86	806
1590.45	586
1599.02	1218
1607.59	1292
1616.14	446
1624.69	322
1633.22	312
1641.75	314
1650.26	326
1658.76	290
1667.26	276
1675.74	292
1684.21	266
1692.67	270
1701.12	268
1709.56	268
1717.99	284
1726.41	256
1734.82	282
1743.22	276
1751.61	262
1759.99	260
1768.36	258
1776.71	270
1785.06	270
1793.4	268
1801.73	288
1810.04	284
1818.35	274
1826.65	276
1834.94	276
1843.21	270
1851.48	274
1859.74	280
1867.98	292
1876.22	268
1884.45	266
1892.67	288
1900.87	282
1909.07	286
1917.26	288
1925.43	306
1933.6	290
1941.76	308
1949.91	302
1958.05	284
1966.17	288
1974.29	300
1982.4	280
1990.5	296
1998.59	280
2006.67	300
2014.74	300
2022.8	292
2030.85	300
2038.89	302
2046.92	288
2054.94	304
2062.95	324
2070.96	308
2078.95	286
2086.93	322
2094.91	310
2102.87	318
2110.83	304
2118.77	286
2126.71	326
2134.63	322
2142.55	314
2150.46	340
2158.35	298
2166.24	330
2174.12	308
2181.99	330
2189.85	300
2197.7	314
2205.55	312
2213.38	318
2221.2	312
2229.02	334
2236.82	334
2244.62	316
2252.4	324
2260.18	320
2267.95	320
2275.71	340
2283.46	324
2291.2	338
2298.93	308
2306.65	340
2314.37	320
2322.07	318
2329.77	340
2337.45	318
2345.13	330
2352.8	334
2360.46	360
2368.11	316
2375.75	346
2383.38	342
2391.01	330
2398.62	336
2406.23	340
2413.82	340
2421.41	332
2428.99	332
2436.56	346
2444.12	356
2449.79	340

File: ps-ppo-7jan25-1,0000-map3_Y10_X09.txt
182.393	1046
192.79	956
203.174	972
213.542	1010
223.897	1078
234.238	840
244.566	536
254.878	384
265.178	378
275.463	342
285.734	296
295.992	264
306.236	248
316.467	258
326.684	252
336.887	254
347.075	264
357.251	232
367.413	254
377.562	270
387.697	294
397.819	316
407.926	382
418.02	300
428.101	274
438.169	258
448.223	242
458.264	230
468.291	202
478.306	198
488.307	204
498.294	218
508.269	232
518.23	226
528.177	230
538.113	288
548.034	288
557.942	300
567.838	278
577.72	282
587.589	266
597.446	246
607.289	302
617.119	464
626.936	570
636.741	242
646.533	204
656.313	190
666.078	200
675.831	198
685.571	210
695.299	224
705.014	252
714.716	262
724.406	324
734.082	304
743.746	430
753.398	470
763.037	524
772.664	448
782.278	494
791.879	674
801.467	636
811.044	440
820.608	334
830.16	282
839.699	362
849.226	368
858.741	322
868.243	328
877.731	338
887.209	316
896.674	308
906.128	360
915.569	310
924.997	288
934.414	278
943.818	286
953.211	290
962.59	314
971.958	348
981.314	490
990.659	1188
999.99	4316
1009.31	1512
1018.62	476
1027.91	1220
1037.2	1418
1046.47	468
1055.73	418
1064.98	438
1074.22	460
1083.44	446
1092.65	434
1101.86	454
1111.05	354
1120.22	316
1129.39	290
1138.54	300
1147.69	426
1156.82	1002
1165.94	494
1175.05	648
1184.14	1226
1193.23	1140
1202.3	1194
1211.36	752
1220.41	506
1229.45	438
1238.48	404
1247.5	384
1256.5	332
1265.49	366
1274.48	366
1283.45	358
1292.41	402
1301.36	422
1310.29	428
1319.22	490
1328.13	520
1337.04	516
1345.93	434
1354.81	386
1363.68	396
1372.54	392
1381.38	370
1390.22	296
1399.05	294
1407.86	278
1416.66	304
1425.46	294
1434.24	324
1443.01	502
1451.77	634
1460.52	390
1469.25	310
1477.98	282
1486.7	286
1495.4	324
1504.1	270
1512.78	292
1521.45	288
1530.11	282
1538.76	304
1547.41	310
1556.03	312
1564.65	340
1573.26	386
1581.86	824
1590.45	616
1599.02	1260
1607.59	1296
1616.14	482
1624.69	364
1633.22	296
1641.75	362
1650.26	382
1658.76	334
1667.26	314
1675.74	314
1684.21	314
1692.67	330
1701.12	306
1709.56	318
1717.99	308
1726.41	302
1734.82	290
1743.22	302
1751.61	300
1759.99	304
1768.36	296
1776.71	318
1785.06	318
1793.4	298
1801.73	330
1810.04	326
1818.35	310
1826.65	334
1834.94	336
1843.21	320
1851.48	330
1859.74	340
1867.98	334
1876.22	332
1884.45	352
1892.67	316
1900.87	342
1909.07	318
1917.26	334
1925.43	350
1933.6	350
1941.76	348
1949.91	364
1958.05	342
1966.17	360
1974.29	344
1982.4	322
1990.5	344
1998.59	344
2006.67	344
2014.74	342
2022.8	334
2030.85	362
2038.89	368
2046.92	362
2054.94	372
2062.95	374
2070.96	358
2078.95	350
2086.93	360
2094.91	364
2102.87	362
2110.83	356
2118.77	356
2126.71	374
2134.63	366
2142.55	386
2150.46	364
2158.35	366
2166.24	376
2174.12	402
2181.99	358
2189.85	366
2197.7	374
2205.55	356
2213.38	392
2221.2	382
2229.02	364
2236.82	380
2244.62	366
2252.4	386
2260.18	368
2267.95	378
2275.71	380
2283.46	350
2291.2	370
2298.93	352
2306.65	394
2314.37	378
2322.07	368
2329.77	368
2337.45	370
2345.13	374
2352.8	390
2360.46	352
2368.11	366
2375.75	396
2383.38	382
2391.01	386
2398.62	376
2406.23	392
2413.82	376
2421.41	354
2428.99	354
2436.56	380
2444.12	380
2449.79	394

File: ps-ppo-7jan25-1,0000-map3_Y10_X10.txt
182.393	1022
192.79	928
203.174	916
213.542	1066
223.897	1062
234.238	812
244.566	498
254.878	382
265.178	336
275.463	318
285.734	270
295.992	244
306.236	222
316.467	230
326.684	216
336.887	224
347.075	214
357.251	226
367.413	222
377.562	226
387.697	260
397.819	290
407.926	348
418.02	258
428.101	236
438.169	210
448.223	198
458.264	176
468.291	184
478.306	176
488.307	190
498.294	186
508.269	204
518.23	200
528.177	224
538.113	262
548.034	262
557.942	244
567.838	264
577.72	244
587.589	218
597.446	206
607.289	258
617.119	434
626.936	506
636.741	212
646.533	184
656.313	170
666.078	178
675.831	170
685.571	170
695.299	164
705.014	226
714.716	216
724.406	302
734.082	294
743.746	366
753.398	420
763.037	496
772.664	420
782.278	442
791.879	624
801.467	646
811.044	386
820.608	292
830.16	262
839.699	340
849.226	332
858.741	282
868.243	300
877.731	290
887.209	270
896.674	288
906.128	364
915.569	302
924.997	256
934.414	258
943.818	250
953.211	254
962.59	304
971.958	340
981.314	482
990.659	1190
999.99	4270
1009.31	1486
1018.62	478
1027.91	1210
1037.2	1380
1046.47	480
1055.73	410
1064.98	408
1074.22	454
1083.44	426
1092.65	394
1101.86	430
1111.05	330
1120.22	304
1129.39	256
1138.54	310
1147.69	414
1156.82	996
1165.94	500
1175.05	604
1184.14	1210
1193.23	1114
1202.3	1170
1211.36	706
1220.41	478
1229.45	448
1238.48	372
1247.5	370
1256.5	344
1265.49	366
1274.48	354
1283.45	346
1292.41	378
1301.36	390
1310.29	430
1319.22	486
1328.13	508
1337.04	462
1345.93	398
1354.81	388
1363.68	386
1372.54	376
1381.38	350
1390.22	294
1399.05	260
1407.86	280
1416.66	262
1425.46	280
1434.24	330
1443.01	502
1451.77	594
1460.52	384
1469.25	276
1477.98	286
1486.7	278
1495.4	328
1504.1	284
1512.78	268
1521.45	288
1530.11	280
1538.76	278
1547.41	280
1556.03	298
1564.65	292
1573.26	384
1581.86	806
1590.45	594
1599.02	1248
1607.59	1288
1616.14	472
1624.69	362
1633.22	322
1641.75	342
1650.26	344
1658.76	300
1667.26	268
1675.74	292
1684.21	288
1692.67	294
1701.12	298
1709.56	276
1717.99	280
1726.41	276
1734.82	298
1743.22	294
1751.61	302
1759.99	278
1768.36	284
1776.71	294
1785.06	276
1793.4	298
1801.73	296
1810.04	308
1818.35	312
1826.65	306
1834.94	292
1843.21	290
1851.48	300
1859.74	288
1867.98	284
1876.22	278
1884.45	298
1892.67	308
1900.87	302
1909.07	312
1917.26	312
1925.43	316
1933.6	308
1941.76	308
1949.91	314
1958.05	294
1966.17	314
1974.29	300
1982.4	308
1990.5	316
1998.59	314
2006.67	318
2014.74	312
2022.8	320
2030.85	314
2038.89	308
2046.92	316
2054.94	326
2062.95	322
2070.96	306
2078.95	344
2086.93	342
2094.91	312
2102.87	324
2110.83	322
2118.77	338
2126.71	318
2134.63	320
2142.55	322
2150.46	330
2158.35	342
2166.24	328
2174.12	314
2181.99	334
2189.85	318
2197.7	336
2205.55	350
2213.38	344
2221.2	342
2229.02	338
2236.82	320
2244.62	332
2252.4	340
2260.18	328
2267.95	346
2275.71	358
2283.46	350
2291.2	348
2298.93	324
2306.65	332
2314.37	332
2322.07	354
2329.77	352
2337.45	332
2345.13	346
2352.8	352
2360.46	356
2368.11	358
2375.75	338
2383.38	346
2391.01	336
2398.62	360
2406.23	362
2413.82	354
2421.41	354
2428.99	376
2436.56	356
2444.12	366
2449.79	368