Folder: NRC_SU25_Spectral_Classification/Mixture_Classification/Jesse_Dataset_v2/Pure Raman/Polystyrene/633nm (part 3)

File: ps-ppo-7jan25-1,0000-map3_Y02_X08.txt
182.393	1064
192.79	964
203.174	940
213.542	1070
223.897	1096
234.238	854
244.566	544
254.878	386
265.178	342
275.463	318
285.734	290
295.992	266
306.236	242
316.467	244
326.684	252
336.887	248
347.075	250
357.251	232
367.413	232
377.562	240
387.697	268
397.819	288
407.926	352
418.02	294
428.101	262
438.169	230
448.223	216
458.264	196
468.291	210
478.306	198
488.307	202
498.294	184
508.269	216
518.23	218
528.177	218
538.113	292
548.034	288
557.942	268
567.838	258
577.72	284
587.589	234
597.446	228
607.289	284
617.119	432
626.936	554
636.741	240
646.533	196
656.313	174
666.078	208
675.831	192
685.571	186
695.299	210
705.014	246
714.716	228
724.406	312
734.082	298
743.746	384
753.398	432
763.037	484
772.664	446
782.278	470
791.879	658
801.467	624
811.044	420
820.608	312
830.16	284
839.699	348
849.226	334
858.741	302
868.243	296
877.731	286
887.209	296
896.674	288
906.128	368
915.569	304
924.997	268
934.414	260
943.818	278
953.211	268
962.59	290
971.958	332
981.314	448
990.659	1156
999.99	4122
1009.31	1534
1018.62	470
1027.91	1128
1037.2	1420
1046.47	494
1055.73	390
1064.98	414
1074.22	432
1083.44	430
1092.65	404
1101.86	420
1111.05	348
1120.22	312
1129.39	254
1138.54	308
1147.69	404
1156.82	970
1165.94	526
1175.05	656
1184.14	1162
1193.23	1138
1202.3	1136
1211.36	728
1220.41	488
1229.45	422
1238.48	386
1247.5	358
1256.5	344
1265.49	348
1274.48	360
1283.45	348
1292.41	376
1301.36	400
1310.29	432
1319.22	460
1328.13	526
1337.04	494
1345.93	392
1354.81	362
1363.68	374
1372.54	380
1381.38	362
1390.22	274
1399.05	284
1407.86	274
1416.66	262
1425.46	256
1434.24	326
1443.01	486
1451.77	628
1460.52	404
1469.25	296
1477.98	296
1486.7	268
1495.4	306
1504.1	270
1512.78	270
1521.45	270
1530.11	278
1538.76	280
1547.41	264
1556.03	290
1564.65	326
1573.26	372
1581.86	818
1590.45	612
1599.02	1202
1607.59	1314
1616.14	500
1624.69	378
1633.22	326
1641.75	332
1650.26	320
1658.76	300
1667.26	304
1675.74	290
1684.21	294
1692.67	296
1701.12	284
1709.56	288
1717.99	292
1726.41	290
1734.82	274
1743.22	290
1751.61	288
1759.99	282
1768.36	274
1776.71	284
1785.06	298
1793.4	296
1801.73	296
1810.04	310
1818.35	298
1826.65	290
1834.94	292
1843.21	292
1851.48	306
1859.74	290
1867.98	298
1876.22	300
1884.45	294
1892.67	290
1900.87	312
1909.07	308
1917.26	302
1925.43	316
1933.6	318
1941.76	326
1949.91	318
1958.05	300
1966.17	322
1974.29	310
1982.4	316
1990.5	310
1998.59	318
2006.67	304
2014.74	316
2022.8	320
2030.85	330
2038.89	306
2046.92	336
2054.94	336
2062.95	316
2070.96	328
2078.95	314
2086.93	332
2094.91	330
2102.87	332
2110.83	346
2118.77	336
2126.71	334
2134.63	334
2142.55	330
2150.46	348
2158.35	348
2166.24	334
2174.12	332
2181.99	334
2189.85	334
2197.7	324
2205.55	330
2213.38	318
2221.2	332
2229.02	350
2236.82	350
2244.62	338
2252.4	330
2260.18	354
2267.95	344
2275.71	342
2283.46	346
2291.2	346
2298.93	350
2306.65	354
2314.37	364
2322.07	348
2329.77	360
2337.45	340
2345.13	358
2352.8	346
2360.46	330
2368.11	346
2375.75	340
2383.38	334
2391.01	358
2398.62	346
2406.23	366
2413.82	348
2421.41	360
2428.99	354
2436.56	356
2444.12	378
2449.79	374

File: ps-ppo-7jan25-1,0000-map3_Y02_X10.txt
182.393	990
192.79	918
203.174	916
213.542	1018
223.897	1062
234.238	810
244.566	500
254.878	378
265.178	312
275.463	322
285.734	268
295.992	228
306.236	212
316.467	224
326.684	242
336.887	224
347.075	222
357.251	214
367.413	206
377.562	208
387.697	240
397.819	290
407.926	336
418.02	264
428.101	254
438.169	226
448.223	206
458.264	186
468.291	186
478.306	176
488.307	174
498.294	164
508.269	188
518.23	198
528.177	206
538.113	232
548.034	246
557.942	248
567.838	250
577.72	242
587.589	204
597.446	206
607.289	248
617.119	428
626.936	528
636.741	228
646.533	190
656.313	176
666.078	178
675.831	170
685.571	170
695.299	180
705.014	212
714.716	190
724.406	278
734.082	262
743.746	384
753.398	420
763.037	484
772.664	422
782.278	462
791.879	646
801.467	624
811.044	382
820.608	286
830.16	268
839.699	336
849.226	332
858.741	296
868.243	296
877.731	278
887.209	274
896.674	286
906.128	358
915.569	280
924.997	260
934.414	250
943.818	234
953.211	254
962.59	280
971.958	328
981.314	460
990.659	1164
999.99	4172
1009.31	1524
1018.62	454
1027.91	1184
1037.2	1394
1046.47	476
1055.73	370
1064.98	434
1074.22	432
1083.44	420
1092.65	400
1101.86	408
1111.05	346
1120.22	288
1129.39	262
1138.54	292
1147.69	392
1156.82	962
1165.94	498
1175.05	636
1184.14	1188
1193.23	1140
1202.3	1146
1211.36	718
1220.41	484
1229.45	424
1238.48	376
1247.5	364
1256.5	350
1265.49	340
1274.48	344
1283.45	350
1292.41	388
1301.36	402
1310.29	410
1319.22	488
1328.13	528
1337.04	506
1345.93	390
1354.81	374
1363.68	368
1372.54	378
1381.38	342
1390.22	308
1399.05	272
1407.86	280
1416.66	258
1425.46	264
1434.24	336
1443.01	504
1451.77	616
1460.52	392
1469.25	284
1477.98	302
1486.7	272
1495.4	292
1504.1	280
1512.78	264
1521.45	284
1530.11	280
1538.76	284
1547.41	264
1556.03	292
1564.65	320
1573.26	386
1581.86	800
1590.45	594
1599.02	1234
1607.59	1304
1616.14	512
1624.69	388
1633.22	342
1641.75	342
1650.26	362
1658.76	312
1667.26	300
1675.74	292
1684.21	284
1692.67	308
1701.12	302
1709.56	290
1717.99	298
1726.41	320
1734.82	300
1743.22	286
1751.61	298
1759.99	294
1768.36	304
1776.71	302
1785.06	286
1793.4	310
1801.73	302
1810.04	310
1818.35	306
1826.65	312
1834.94	314
1843.21	302
1851.48	322
1859.74	320
1867.98	318
1876.22	298
1884.45	296
1892.67	314
1900.87	332
1909.07	324
1917.26	326
1925.43	322
1933.6	324
1941.76	324
1949.91	324
1958.05	330
1966.17	334
1974.29	314
1982.4	320
1990.5	328
1998.59	334
2006.67	322
2014.74	336
2022.8	340
2030.85	342
2038.89	324
2046.92	330
2054.94	348
2062.95	342
2070.96	346
2078.95	348
2086.93	354
2094.91	338
2102.87	344
2110.83	338
2118.77	336
2126.71	338
2134.63	354
2142.55	348
2150.46	354
2158.35	348
2166.24	350
2174.12	364
2181.99	354
2189.85	356
2197.7	356
2205.55	354
2213.38	356
2221.2	358
2229.02	354
2236.82	358
2244.62	332
2252.4	344
2260.18	358
2267.95	350
2275.71	358
2283.46	362
2291.2	366
2298.93	368
2306.65	352
2314.37	364
2322.07	358
2329.77	368
2337.45	342
2345.13	364
2352.8	366
2360.46	374
2368.11	386
2375.75	366
2383.38	358
2391.01	388
2398.62	376
2406.23	372
2413.82	368
2421.41	360
2428.99	382
2436.56	394
2444.12	386
2449.79	366

File: ps-ppo-7jan25-1,0000-map3_Y03_X00.txt
182.393	1066
192.79	1024
203.174	992
213.542	1120
223.897	1156
234.238	888
244.566	582
254.878	440
265.178	396
275.463	382
285.734	350
295.992	294
306.236	290
316.467	284
326.684	264
336.887	270
347.075	260
357.251	252
367.413	256
377.562	272
387.697	294
397.819	314
407.926	376
418.02	320
428.101	274
438.169	250
448.223	232
458.264	214
468.291	210
478.306	206
488.307	202
498.294	212
508.269	214
518.23	226
528.177	238
538.113	258
548.034	276
557.942	280
567.838	276
577.72	262
587.589	230
597.446	222
607.289	286
617.119	434
626.936	552
636.741	256
646.533	208
656.313	186
666.078	184
675.831	196
685.571	200
695.299	204
705.014	262
714.716	234
724.406	312
734.082	312
743.746	386
753.398	434
763.037	516
772.664	438
782.278	458
791.879	628
801.467	646
811.044	404
820.608	334
830.16	288
839.699	368
849.226	360
858.741	308
868.243	316
877.731	288
887.209	314
896.674	308
906.128	376
915.569	338
924.997	284
934.414	280
943.818	302
953.211	296
962.59	326
971.958	346
981.314	500
990.659	1172
999.99	4168
1009.31	1544
1018.62	506
1027.91	1200
1037.2	1494
1046.47	524
1055.73	398
1064.98	418
1074.22	470
1083.44	438
1092.65	456
1101.86	468
1111.05	382
1120.22	342
1129.39	298
1138.54	362
1147.69	446
1156.82	1010
1165.94	556
1175.05	666
1184.14	1268
1193.23	1170
1202.3	1184
1211.36	760
1220.41	522
1229.45	476
1238.48	392
1247.5	406
1256.5	416
1265.49	388
1274.48	390
1283.45	406
1292.41	402
1301.36	430
1310.29	456
1319.22	526
1328.13	560
1337.04	524
1345.93	434
1354.81	422
1363.68	404
1372.54	424
1381.38	368
1390.22	334
1399.05	314
1407.86	318
1416.66	320
1425.46	304
1434.24	348
1443.01	522
1451.77	668
1460.52	412
1469.25	308
1477.98	332
1486.7	288
1495.4	352
1504.1	318
1512.78	306
1521.45	300
1530.11	316
1538.76	298
1547.41	310
1556.03	324
1564.65	342
1573.26	392
1581.86	842
1590.45	598
1599.02	1260
1607.59	1304
1616.14	506
1624.69	366
1633.22	348
1641.75	338
1650.26	346
1658.76	328
1667.26	318
1675.74	280
1684.21	304
1692.67	300
1701.12	298
1709.56	296
1717.99	308
1726.41	290
1734.82	308
1743.22	292
1751.61	308
1759.99	298
1768.36	286
1776.71	294
1785.06	300
1793.4	322
1801.73	272
1810.04	290
1818.35	302
1826.65	300
1834.94	304
1843.21	292
1851.48	292
1859.74	304
1867.98	300
1876.22	310
1884.45	288
1892.67	304
1900.87	318
1909.07	322
1917.26	292
1925.43	328
1933.6	314
1941.76	318
1949.91	322
1958.05	314
1966.17	282
1974.29	316
1982.4	328
1990.5	332
1998.59	302
2006.67	312
2014.74	326
2022.8	312
2030.85	328
2038.89	326
2046.92	326
2054.94	344
2062.95	328
2070.96	328
2078.95	346
2086.93	342
2094.91	322
2102.87	312
2110.83	324
2118.77	336
2126.71	334
2134.63	332
2142.55	356
2150.46	340
2158.35	350
2166.24	340
2174.12	326
2181.99	350
2189.85	322
2197.7	334
2205.55	336
2213.38	318
2221.2	336
2229.02	350
2236.82	342
2244.62	326
2252.4	334
2260.18	342
2267.95	328
2275.71	330
2283.46	352
2291.2	346
2298.93	340
2306.65	352
2314.37	362
2322.07	352
2329.77	348
2337.45	342
2345.13	350
2352.8	358
2360.46	362
2368.11	350
2375.75	358
2383.38	354
2391.01	352
2398.62	360
2406.23	362
2413.82	344
2421.41	382
2428.99	366
2436.56	366
2444.12	364
2449.79	380

File: ps-ppo-7jan25-1,0000-map3_Y03_X02.txt
182.393	978
192.79	906
203.174	956
213.542	1042
223.897	1058
234.238	842
244.566	512
254.878	386
265.178	324
275.463	302
285.734	272
295.992	238
306.236	230
316.467	234
326.684	230
336.887	244
347.075	210
357.251	204
367.413	204
377.562	242
387.697	256
397.819	280
407.926	340
418.02	284
428.101	232
438.169	206
448.223	210
458.264	172
468.291	168
478.306	168
488.307	164
498.294	188
508.269	184
518.23	186
528.177	220
538.113	240
548.034	248
557.942	240
567.838	242
577.72	242
587.589	214
597.446	214
607.289	272
617.119	390
626.936	526
636.741	212
646.533	176
656.313	172
666.078	172
675.831	174
685.571	172
695.299	162
705.014	202
714.716	208
724.406	292
734.082	272
743.746	376
753.398	436
763.037	458
772.664	414
782.278	462
791.879	648
801.467	610
811.044	396
820.608	282
830.16	266
839.699	334
849.226	328
858.741	288
868.243	294
877.731	298
887.209	268
896.674	300
906.128	336
915.569	298
924.997	242
934.414	252
943.818	248
953.211	266
962.59	314
971.958	334
981.314	446
990.659	1156
999.99	4154
1009.31	1566
1018.62	464
1027.91	1198
1037.2	1440
1046.47	500
1055.73	394
1064.98	420
1074.22	418
1083.44	424
1092.65	392
1101.86	410
1111.05	346
1120.22	312
1129.39	266
1138.54	312
1147.69	392
1156.82	988
1165.94	520
1175.05	644
1184.14	1210
1193.23	1132
1202.3	1166
1211.36	738
1220.41	500
1229.45	410
1238.48	392
1247.5	340
1256.5	352
1265.49	354
1274.48	328
1283.45	344
1292.41	384
1301.36	384
1310.29	406
1319.22	462
1328.13	532
1337.04	480
1345.93	394
1354.81	360
1363.68	380
1372.54	372
1381.38	342
1390.22	272
1399.05	270
1407.86	266
1416.66	266
1425.46	274
1434.24	302
1443.01	480
1451.77	610
1460.52	396
1469.25	262
1477.98	258
1486.7	254
1495.4	286
1504.1	264
1512.78	246
1521.45	268
1530.11	262
1538.76	252
1547.41	288
1556.03	274
1564.65	304
1573.26	372
1581.86	784
1590.45	606
1599.02	1212
1607.59	1304
1616.14	488
1624.69	342
1633.22	312
1641.75	310
1650.26	352
1658.76	288
1667.26	284
1675.74	274
1684.21	296
1692.67	284
1701.12	272
1709.56	288
1717.99	274
1726.41	288
1734.82	292
1743.22	260
1751.61	266
1759.99	272
1768.36	280
1776.71	282
1785.06	262
1793.4	276
1801.73	282
1810.04	296
1818.35	294
1826.65	266
1834.94	290
1843.21	278
1851.48	264
1859.74	288
1867.98	288
1876.22	298
1884.45	292
1892.67	304
1900.87	292
1909.07	296
1917.26	286
1925.43	298
1933.6	296
1941.76	316
1949.91	306
1958.05	318
1966.17	288
1974.29	302
1982.4	292
1990.5	306
1998.59	306
2006.67	298
2014.74	310
2022.8	324
2030.85	302
2038.89	308
2046.92	310
2054.94	308
2062.95	326
2070.96	322
2078.95	318
2086.93	322
2094.91	324
2102.87	314
2110.83	318
2118.77	334
2126.71	328
2134.63	318
2142.55	324
2150.46	336
2158.35	330
2166.24	310
2174.12	332
2181.99	318
2189.85	316
2197.7	326
2205.55	336
2213.38	336
2221.2	336
2229.02	348
2236.82	342
2244.62	340
2252.4	326
2260.18	312
2267.95	330
2275.71	340
2283.46	316
2291.2	344
2298.93	346
2306.65	338
2314.37	340
2322.07	336
2329.77	344
2337.45	326
2345.13	344
2352.8	342
2360.46	332
2368.11	354
2375.75	350
2383.38	342
2391.01	352
2398.62	334
2406.23	338
2413.82	346
2421.41	372
2428.99	362
2436.56	352
2444.12	374
2449.79	360

File: ps-ppo-7jan25-1,0000-map3_Y03_X03.txt
182.393	1042
192.79	992
203.174	992
213.542	1076
223.897	1130
234.238	874
244.566	576
254.878	434
265.178	390
275.463	348
285.734	306
295.992	272
306.236	264
316.467	268
326.684	266
336.887	254
347.075	244
357.251	242
367.413	242
377.562	278
387.697	304
397.819	326
407.926	378
418.02	338
428.101	270
438.169	264
448.223	248
458.264	232
468.291	212
478.306	200
488.307	206
498.294	212
508.269	220
518.23	222
528.177	232
538.113	274
548.034	300
557.942	280
567.838	272
577.72	280
587.589	248
597.446	238
607.289	308
617.119	444
626.936	560
636.741	238
646.533	218
656.313	202
666.078	194
675.831	192
685.571	188
695.299	208
705.014	238
714.716	236
724.406	330
734.082	284
743.746	400
753.398	454
763.037	516
772.664	432
782.278	464
791.879	660
801.467	646
811.044	432
820.608	338
830.16	280
839.699	380
849.226	360
858.741	326
868.243	320
877.731	308
887.209	300
896.674	310
906.128	390
915.569	302
924.997	300
934.414	266
943.818	292
953.211	278
962.59	320
971.958	364
981.314	478
990.659	1184
999.99	4150
1009.31	1624
1018.62	482
1027.91	1176
1037.2	1482
1046.47	504
1055.73	434
1064.98	448
1074.22	458
1083.44	452
1092.65	470
1101.86	468
1111.05	370
1120.22	342
1129.39	300
1138.54	336
1147.69	454
1156.82	1008
1165.94	544
1175.05	648
1184.14	1240
1193.23	1156
1202.3	1164
1211.36	730
1220.41	504
1229.45	440
1238.48	398
1247.5	382
1256.5	388
1265.49	366
1274.48	360
1283.45	376
1292.41	394
1301.36	416
1310.29	438
1319.22	458
1328.13	552
1337.04	508
1345.93	432
1354.81	386
1363.68	412
1372.54	414
1381.38	354
1390.22	312
1399.05	312
1407.86	296
1416.66	288
1425.46	284
1434.24	338
1443.01	478
1451.77	636
1460.52	388
1469.25	302
1477.98	310
1486.7	296
1495.4	300
1504.1	284
1512.78	276
1521.45	292
1530.11	300
1538.76	274
1547.41	308
1556.03	300
1564.65	306
1573.26	378
1581.86	798
1590.45	600
1599.02	1228
1607.59	1304
1616.14	468
1624.69	372
1633.22	358
1641.75	352
1650.26	372
1658.76	294
1667.26	320
1675.74	318
1684.21	308
1692.67	306
1701.12	318
1709.56	312
1717.99	300
1726.41	294
1734.82	282
1743.22	296
1751.61	300
1759.99	314
1768.36	284
1776.71	288
1785.06	308
1793.4	320
1801.73	298
1810.04	308
1818.35	310
1826.65	308
1834.94	296
1843.21	310
1851.48	296
1859.74	304
1867.98	316
1876.22	314
1884.45	312
1892.67	302
1900.87	312
1909.07	312
1917.26	312
1925.43	320
1933.6	334
1941.76	314
1949.91	312
1958.05	298
1966.17	316
1974.29	322
1982.4	312
1990.5	310
1998.59	320
2006.67	326
2014.74	316
2022.8	318
2030.85	306
2038.89	336
2046.92	324
2054.94	314
2062.95	342
2070.96	338
2078.95	320
2086.93	314
2094.91	344
2102.87	324
2110.83	334
2118.77	336
2126.71	340
2134.63	338
2142.55	326
2150.46	320
2158.35	336
2166.24	326
2174.12	346
2181.99	322
2189.85	336
2197.7	350
2205.55	330
2213.38	344
2221.2	348
2229.02	338
2236.82	348
2244.62	340
2252.4	342
2260.18	342
2267.95	346
2275.71	356
2283.46	334
2291.2	354
2298.93	350
2306.65	322
2314.37	368
2322.07	340
2329.77	346
2337.45	340
2345.13	346
2352.8	332
2360.46	352
2368.11	342
2375.75	334
2383.38	356
2391.01	350
2398.62	354
2406.23	352
2413.82	374
2421.41	350
2428.99	348
2436.56	356
2444.12	356
2449.79	374

File: ps-ppo-7jan25-1,0000-map3_Y03_X04.txt
182.393	1012
192.79	920
203.174	944
213.542	1048
223.897	1102
234.238	844
244.566	536
254.878	374
265.178	322
275.463	326
285.734	286
295.992	234
306.236	234
316.467	224
326.684	226
336.887	228
347.075	212
357.251	214
367.413	204
377.562	228
387.697	252
397.819	266
407.926	320
418.02	280
428.101	252
438.169	226
448.223	208
458.264	176
468.291	192
478.306	168
488.307	178
498.294	170
508.269	190
518.23	186
528.177	216
538.113	238
548.034	248
557.942	248
567.838	228
577.72	238
587.589	208
597.446	198
607.289	238
617.119	414
626.936	512
636.741	216
646.533	178
656.313	160
666.078	168
675.831	172
685.571	164
695.299	164
705.014	214
714.716	204
724.406	286
734.082	272
743.746	358
753.398	408
763.037	458
772.664	426
782.278	418
791.879	628
801.467	604
811.044	372
820.608	288
830.16	262
839.699	342
849.226	322
858.741	298
868.243	292
877.731	286
887.209	270
896.674	272
906.128	336
915.569	290
924.997	254
934.414	238
943.818	250
953.211	262
962.59	288
971.958	316
981.314	450
990.659	1154
999.99	4160
1009.31	1570
1018.62	448
1027.91	1172
1037.2	1414
1046.47	486
1055.73	392
1064.98	402
1074.22	444
1083.44	396
1092.65	402
1101.86	424
1111.05	352
1120.22	288
1129.39	256
1138.54	288
1147.69	384
1156.82	946
1165.94	514
1175.05	608
1184.14	1148
1193.23	1126
1202.3	1156
1211.36	738
1220.41	470
1229.45	398
1238.48	360
1247.5	340
1256.5	348
1265.49	340
1274.48	322
1283.45	352
1292.41	358
1301.36	390
1310.29	402
1319.22	456
1328.13	532
1337.04	464
1345.93	416
1354.81	368
1363.68	370
1372.54	348
1381.38	340
1390.22	278
1399.05	272
1407.86	260
1416.66	234
1425.46	248
1434.24	322
1443.01	472
1451.77	616
1460.52	392
1469.25	292
1477.98	268
1486.7	276
1495.4	306
1504.1	248
1512.78	260
1521.45	258
1530.11	258
1538.76	278
1547.41	278
1556.03	274
1564.65	296
1573.26	364
1581.86	806
1590.45	610
1599.02	1208
1607.59	1296
1616.14	478
1624.69	380
1633.22	304
1641.75	314
1650.26	340
1658.76	280
1667.26	286
1675.74	280
1684.21	290
1692.67	278
1701.12	272
1709.56	302
1717.99	274
1726.41	272
1734.82	298
1743.22	278
1751.61	290
1759.99	274
1768.36	286
1776.71	288
1785.06	288
1793.4	278
1801.73	286
1810.04	292
1818.35	292
1826.65	276
1834.94	300
1843.21	290
1851.48	284
1859.74	298
1867.98	296
1876.22	292
1884.45	296
1892.67	280
1900.87	296
1909.07	298
1917.26	332
1925.43	288
1933.6	302
1941.76	302
1949.91	322
1958.05	290
1966.17	332
1974.29	304
1982.4	292
1990.5	294
1998.59	294
2006.67	306
2014.74	304
2022.8	314
2030.85	316
2038.89	314
2046.92	316
2054.94	312
2062.95	326
2070.96	332
2078.95	334
2086.93	324
2094.91	340
2102.87	328
2110.83	338
2118.77	322
2126.71	322
2134.63	318
2142.55	336
2150.46	332
2158.35	308
2166.24	316
2174.12	322
2181.99	316
2189.85	336
2197.7	338
2205.55	346
2213.38	342
2221.2	336
2229.02	316
2236.82	338
2244.62	308
2252.4	330
2260.18	342
2267.95	344
2275.71	340
2283.46	340
2291.2	350
2298.93	326
2306.65	338
2314.37	346
2322.07	356
2329.77	344
2337.45	332
2345.13	356
2352.8	354
2360.46	366
2368.11	356
2375.75	348
2383.38	346
2391.01	368
2398.62	356
2406.23	320
2413.82	360
2421.41	348
2428.99	352
2436.56	342
2444.12	368
2449.79	356

File: ps-ppo-7jan25-1,0000-map3_Y03_X05.txt
182.393	1094
192.79	978
203.174	966
213.542	1054
223.897	1124
234.238	880
244.566	560
254.878	414
265.178	378
275.463	352
285.734	314
295.992	284
306.236	266
316.467	258
326.684	256
336.887	258
347.075	242
357.251	236
367.413	224
377.562	274
387.697	298
397.819	308
407.926	372
418.02	316
428.101	254
438.169	242
448.223	228
458.264	210
468.291	208
478.306	202
488.307	184
498.294	200
508.269	196
518.23	216
528.177	224
538.113	276
548.034	252
557.942	252
567.838	254
577.72	256
587.589	226
597.446	212
607.289	256
617.119	418
626.936	540
636.741	230
646.533	188
656.313	174
666.078	182
675.831	202
685.571	170
695.299	196
705.014	216
714.716	232
724.406	310
734.082	286
743.746	404
753.398	440
763.037	486
772.664	436
782.278	464
791.879	664
801.467	636
811.044	418
820.608	322
830.16	296
839.699	376
849.226	368
858.741	324
868.243	332
877.731	330
887.209	324
896.674	304
906.128	382
915.569	340
924.997	288
934.414	284
943.818	316
953.211	306
962.59	358
971.958	372
981.314	500
990.659	1202
999.99	4302
1009.31	1620
1018.62	528
1027.91	1224
1037.2	1502
1046.47	538
1055.73	456
1064.98	460
1074.22	502
1083.44	494
1092.65	458
1101.86	466
1111.05	396
1120.22	354
1129.39	320
1138.54	330
1147.69	452
1156.82	1006
1165.94	532
1175.05	680
1184.14	1226
1193.23	1174
1202.3	1180
1211.36	752
1220.41	538
1229.45	470
1238.48	406
1247.5	382
1256.5	384
1265.49	380
1274.48	360
1283.45	380
1292.41	400
1301.36	406
1310.29	458
1319.22	474
1328.13	540
1337.04	494
1345.93	406
1354.81	384
1363.68	382
1372.54	394
1381.38	362
1390.22	302
1399.05	300
1407.86	280
1416.66	292
1425.46	286
1434.24	348
1443.01	486
1451.77	626
1460.52	382
1469.25	296
1477.98	278
1486.7	276
1495.4	312
1504.1	276
1512.78	272
1521.45	280
1530.11	290
1538.76	288
1547.41	278
1556.03	298
1564.65	308
1573.26	374
1581.86	806
1590.45	604
1599.02	1236
1607.59	1318
1616.14	488
1624.69	354
1633.22	330
1641.75	332
1650.26	356
1658.76	300
1667.26	290
1675.74	280
1684.21	274
1692.67	276
1701.12	298
1709.56	264
1717.99	274
1726.41	280
1734.82	286
1743.22	278
1751.61	282
1759.99	286
1768.36	290
1776.71	292
1785.06	308
1793.4	286
1801.73	282
1810.04	282
1818.35	286
1826.65	292
1834.94	278
1843.21	280
1851.48	286
1859.74	296
1867.98	286
1876.22	288
1884.45	270
1892.67	306
1900.87	304
1909.07	304
1917.26	300
1925.43	292
1933.6	288
1941.76	288
1949.91	298
1958.05	296
1966.17	282
1974.29	312
1982.4	292
1990.5	300
1998.59	306
2006.67	292
2014.74	330
2022.8	314
2030.85	296
2038.89	316
2046.92	320
2054.94	306
2062.95	320
2070.96	308
2078.95	320
2086.93	322
2094.91	308
2102.87	310
2110.83	330
2118.77	328
2126.71	328
2134.63	300
2142.55	326
2150.46	336
2158.35	316
2166.24	334
2174.12	310
2181.99	316
2189.85	326
2197.7	328
2205.55	334
2213.38	336
2221.2	338
2229.02	326
2236.82	330
2244.62	336
2252.4	348
2260.18	336
2267.95	338
2275.71	322
2283.46	340
2291.2	334
2298.93	360
2306.65	340
2314.37	344
2322.07	354
2329.77	324
2337.45	334
2345.13	362
2352.8	344
2360.46	348
2368.11	348
2375.75	336
2383.38	336
2391.01	340
2398.62	358
2406.23	356
2413.82	348
2421.41	350
2428.99	366
2436.56	364
2444.12	356
2449.79	336

File: ps-ppo-7jan25-1,0000-map3_Y03_X06.txt
182.393	1002
192.79	942
203.174	902
213.542	1006
223.897	996
234.238	830
244.566	526
254.878	362
265.178	338
275.463	318
285.734	268
295.992	242
306.236	230
316.467	220
326.684	232
336.887	208
347.075	202
357.251	210
367.413	216
377.562	222
387.697	260
397.819	270
407.926	342
418.02	250
428.101	232
438.169	212
448.223	196
458.264	180
468.291	176
478.306	168
488.307	160
498.294	172
508.269	184
518.23	198
528.177	212
538.113	226
548.034	258
557.942	238
567.838	234
577.72	236
587.589	196
597.446	210
607.289	266
617.119	418
626.936	530
636.741	200
646.533	174
656.313	166
666.078	158
675.831	170
685.571	150
695.299	178
705.014	204
714.716	206
724.406	274
734.082	260
743.746	368
753.398	430
763.037	462
772.664	428
782.278	456
791.879	620
801.467	632
811.044	388
820.608	274
830.16	244
839.699	354
849.226	316
858.741	270
868.243	278
877.731	264
887.209	270
896.674	304
906.128	352
915.569	290
924.997	252
934.414	238
943.818	258
953.211	256
962.59	300
971.958	336
981.314	436
990.659	1166
999.99	4080
1009.31	1534
1018.62	434
1027.91	1184
1037.2	1462
1046.47	474
1055.73	384
1064.98	410
1074.22	420
1083.44	406
1092.65	410
1101.86	408
1111.05	354
1120.22	294
1129.39	258
1138.54	288
1147.69	390
1156.82	968
1165.94	510
1175.05	626
1184.14	1252
1193.23	1110
1202.3	1164
1211.36	720
1220.41	480
1229.45	426
1238.48	372
1247.5	364
1256.5	344
1265.49	358
1274.48	342
1283.45	342
1292.41	362
1301.36	418
1310.29	422
1319.22	446
1328.13	530
1337.04	508
1345.93	402
1354.81	354
1363.68	372
1372.54	378
1381.38	342
1390.22	292
1399.05	262
1407.86	274
1416.66	254
1425.46	248
1434.24	328
1443.01	460
1451.77	582
1460.52	378
1469.25	280
1477.98	264
1486.7	276
1495.4	296
1504.1	256
1512.78	250
1521.45	270
1530.11	262
1538.76	280
1547.41	268
1556.03	242
1564.65	306
1573.26	372
1581.86	794
1590.45	596
1599.02	1200
1607.59	1254
1616.14	454
1624.69	358
1633.22	316
1641.75	306
1650.26	352
1658.76	306
1667.26	284
1675.74	290
1684.21	296
1692.67	288
1701.12	276
1709.56	264
1717.99	260
1726.41	268
1734.82	278
1743.22	264
1751.61	284
1759.99	264
1768.36	270
1776.71	262
1785.06	266
1793.4	278
1801.73	276
1810.04	296
1818.35	300
1826.65	294
1834.94	286
1843.21	292
1851.48	270
1859.74	306
1867.98	264
1876.22	296
1884.45	286
1892.67	292
1900.87	286
1909.07	306
1917.26	300
1925.43	308
1933.6	292
1941.76	284
1949.91	314
1958.05	272
1966.17	290
1974.29	292
1982.4	306
1990.5	288
1998.59	298
2006.67	290
2014.74	300
2022.8	302
2030.85	312
2038.89	304
2046.92	296
2054.94	304
2062.95	316
2070.96	318
2078.95	308
2086.93	314
2094.91	332
2102.87	324
2110.83	318
2118.77	316
2126.71	330
2134.63	320
2142.55	330
2150.46	316
2158.35	344
2166.24	338
2174.12	340
2181.99	340
2189.85	320
2197.7	344
2205.55	346
2213.38	336
2221.2	314
2229.02	328
2236.82	330
2244.62	340
2252.4	318
2260.18	340
2267.95	344
2275.71	348
2283.46	344
2291.2	334
2298.93	342
2306.65	342
2314.37	354
2322.07	358
2329.77	334
2337.45	336
2345.13	348
2352.8	342
2360.46	348
2368.11	340
2375.75	348
2383.38	366
2391.01	348
2398.62	346
2406.23	346
2413.82	334
2421.41	354
2428.99	344
2436.56	352
2444.12	336
2449.79	374