Folder: NRC_SU25_Spectral_Classification/Mixture_Classification/Jesse_Dataset_v2/Pure Raman/Polystyrene/633nm (part 7)

File: ps-ppo-7jan25-1,0000-map3_Y09_X03.txt
182.393	1042
192.79	950
203.174	938
213.542	1018
223.897	1062
234.238	850
244.566	506
254.878	376
265.178	326
275.463	302
285.734	286
295.992	238
306.236	206
316.467	232
326.684	220
336.887	214
347.075	234
357.251	202
367.413	222
377.562	230
387.697	246
397.819	274
407.926	334
418.02	274
428.101	216
438.169	208
448.223	206
458.264	172
468.291	164
478.306	170
488.307	162
498.294	160
508.269	176
518.23	170
528.177	212
538.113	226
548.034	250
557.942	246
567.838	218
577.72	242
587.589	198
597.446	212
607.289	272
617.119	394
626.936	520
636.741	198
646.533	164
656.313	160
666.078	142
675.831	166
685.571	158
695.299	162
705.014	202
714.716	198
724.406	286
734.082	260
743.746	382
753.398	412
763.037	458
772.664	434
782.278	442
791.879	622
801.467	612
811.044	392
820.608	286
830.16	254
839.699	344
849.226	326
858.741	288
868.243	264
877.731	266
887.209	256
896.674	290
906.128	340
915.569	290
924.997	244
934.414	216
943.818	236
953.211	254
962.59	286
971.958	300
981.314	428
990.659	1132
999.99	4238
1009.31	1554
1018.62	434
1027.91	1168
1037.2	1400
1046.47	470
1055.73	386
1064.98	402
1074.22	426
1083.44	404
1092.65	390
1101.86	400
1111.05	310
1120.22	260
1129.39	248
1138.54	278
1147.69	388
1156.82	968
1165.94	496
1175.05	612
1184.14	1188
1193.23	1114
1202.3	1114
1211.36	692
1220.41	464
1229.45	422
1238.48	346
1247.5	346
1256.5	348
1265.49	322
1274.48	328
1283.45	344
1292.41	364
1301.36	394
1310.29	424
1319.22	466
1328.13	526
1337.04	470
1345.93	386
1354.81	336
1363.68	354
1372.54	352
1381.38	312
1390.22	250
1399.05	260
1407.86	264
1416.66	236
1425.46	258
1434.24	310
1443.01	464
1451.77	608
1460.52	358
1469.25	276
1477.98	248
1486.7	246
1495.4	284
1504.1	254
1512.78	244
1521.45	242
1530.11	270
1538.76	276
1547.41	244
1556.03	286
1564.65	284
1573.26	362
1581.86	824
1590.45	592
1599.02	1224
1607.59	1300
1616.14	478
1624.69	342
1633.22	316
1641.75	312
1650.26	336
1658.76	282
1667.26	272
1675.74	274
1684.21	278
1692.67	274
1701.12	240
1709.56	272
1717.99	270
1726.41	274
1734.82	268
1743.22	264
1751.61	276
1759.99	260
1768.36	268
1776.71	264
1785.06	254
1793.4	282
1801.73	272
1810.04	298
1818.35	270
1826.65	268
1834.94	268
1843.21	268
1851.48	270
1859.74	268
1867.98	282
1876.22	288
1884.45	284
1892.67	290
1900.87	278
1909.07	282
1917.26	282
1925.43	288
1933.6	296
1941.76	294
1949.91	286
1958.05	296
1966.17	292
1974.29	296
1982.4	276
1990.5	290
1998.59	296
2006.67	296
2014.74	290
2022.8	288
2030.85	296
2038.89	314
2046.92	304
2054.94	294
2062.95	300
2070.96	316
2078.95	304
2086.93	308
2094.91	304
2102.87	302
2110.83	306
2118.77	318
2126.71	312
2134.63	306
2142.55	308
2150.46	310
2158.35	302
2166.24	316
2174.12	304
2181.99	314
2189.85	340
2197.7	328
2205.55	308
2213.38	312
2221.2	328
2229.02	320
2236.82	304
2244.62	328
2252.4	318
2260.18	298
2267.95	308
2275.71	316
2283.46	324
2291.2	318
2298.93	324
2306.65	324
2314.37	324
2322.07	330
2329.77	320
2337.45	318
2345.13	328
2352.8	338
2360.46	346
2368.11	332
2375.75	328
2383.38	348
2391.01	334
2398.62	332
2406.23	336
2413.82	352
2421.41	332
2428.99	346
2436.56	344
2444.12	338
2449.79	350

File: ps-ppo-7jan25-1,0000-map3_Y09_X04.txt
182.393	998
192.79	946
203.174	936
213.542	1032
223.897	1058
234.238	824
244.566	494
254.878	360
265.178	326
275.463	294
285.734	276
295.992	232
306.236	218
316.467	234
326.684	230
336.887	204
347.075	206
357.251	196
367.413	222
377.562	232
387.697	256
397.819	256
407.926	332
418.02	266
428.101	224
438.169	206
448.223	202
458.264	174
468.291	164
478.306	170
488.307	162
498.294	180
508.269	164
518.23	172
528.177	202
538.113	234
548.034	230
557.942	248
567.838	240
577.72	232
587.589	198
597.446	216
607.289	246
617.119	394
626.936	522
636.741	220
646.533	172
656.313	162
666.078	164
675.831	144
685.571	150
695.299	174
705.014	198
714.716	202
724.406	288
734.082	250
743.746	376
753.398	416
763.037	474
772.664	420
782.278	466
791.879	626
801.467	634
811.044	386
820.608	284
830.16	272
839.699	312
849.226	328
858.741	284
868.243	290
877.731	270
887.209	262
896.674	276
906.128	326
915.569	280
924.997	246
934.414	266
943.818	248
953.211	258
962.59	300
971.958	294
981.314	440
990.659	1164
999.99	4156
1009.31	1542
1018.62	438
1027.91	1164
1037.2	1412
1046.47	468
1055.73	398
1064.98	404
1074.22	436
1083.44	404
1092.65	408
1101.86	416
1111.05	328
1120.22	300
1129.39	258
1138.54	284
1147.69	404
1156.82	966
1165.94	496
1175.05	614
1184.14	1218
1193.23	1112
1202.3	1164
1211.36	688
1220.41	462
1229.45	418
1238.48	342
1247.5	344
1256.5	336
1265.49	316
1274.48	320
1283.45	324
1292.41	372
1301.36	396
1310.29	426
1319.22	434
1328.13	524
1337.04	466
1345.93	374
1354.81	356
1363.68	374
1372.54	350
1381.38	340
1390.22	272
1399.05	252
1407.86	266
1416.66	258
1425.46	250
1434.24	310
1443.01	486
1451.77	598
1460.52	366
1469.25	294
1477.98	260
1486.7	246
1495.4	288
1504.1	250
1512.78	242
1521.45	258
1530.11	256
1538.76	248
1547.41	250
1556.03	282
1564.65	294
1573.26	354
1581.86	782
1590.45	596
1599.02	1194
1607.59	1308
1616.14	462
1624.69	328
1633.22	320
1641.75	302
1650.26	332
1658.76	284
1667.26	278
1675.74	268
1684.21	286
1692.67	264
1701.12	256
1709.56	250
1717.99	270
1726.41	264
1734.82	266
1743.22	258
1751.61	254
1759.99	258
1768.36	258
1776.71	274
1785.06	270
1793.4	268
1801.73	288
1810.04	288
1818.35	282
1826.65	282
1834.94	262
1843.21	260
1851.48	256
1859.74	274
1867.98	268
1876.22	282
1884.45	280
1892.67	278
1900.87	288
1909.07	298
1917.26	286
1925.43	296
1933.6	290
1941.76	284
1949.91	292
1958.05	284
1966.17	302
1974.29	298
1982.4	288
1990.5	296
1998.59	282
2006.67	294
2014.74	306
2022.8	290
2030.85	306
2038.89	296
2046.92	304
2054.94	318
2062.95	310
2070.96	310
2078.95	324
2086.93	298
2094.91	304
2102.87	312
2110.83	320
2118.77	314
2126.71	308
2134.63	308
2142.55	318
2150.46	326
2158.35	314
2166.24	318
2174.12	312
2181.99	310
2189.85	310
2197.7	300
2205.55	336
2213.38	328
2221.2	322
2229.02	308
2236.82	308
2244.62	308
2252.4	320
2260.18	298
2267.95	318
2275.71	318
2283.46	308
2291.2	324
2298.93	318
2306.65	330
2314.37	318
2322.07	334
2329.77	330
2337.45	326
2345.13	338
2352.8	322
2360.46	350
2368.11	334
2375.75	324
2383.38	346
2391.01	328
2398.62	340
2406.23	324
2413.82	340
2421.41	334
2428.99	340
2436.56	344
2444.12	346
2449.79	370

File: ps-ppo-7jan25-1,0000-map3_Y09_X05.txt
182.393	1032
192.79	938
203.174	932
213.542	1046
223.897	1092
234.238	804
244.566	520
254.878	386
265.178	342
275.463	296
285.734	276
295.992	250
306.236	226
316.467	228
326.684	258
336.887	232
347.075	210
357.251	204
367.413	212
377.562	222
387.697	268
397.819	276
407.926	322
418.02	284
428.101	248
438.169	210
448.223	196
458.264	168
468.291	172
478.306	156
488.307	178
498.294	160
508.269	182
518.23	194
528.177	206
538.113	230
548.034	238
557.942	246
567.838	238
577.72	248
587.589	184
597.446	194
607.289	250
617.119	436
626.936	534
636.741	218
646.533	176
656.313	168
666.078	148
675.831	162
685.571	148
695.299	178
705.014	218
714.716	208
724.406	288
734.082	262
743.746	378
753.398	434
763.037	486
772.664	426
782.278	438
791.879	636
801.467	630
811.044	408
820.608	298
830.16	252
839.699	340
849.226	340
858.741	294
868.243	286
877.731	286
887.209	262
896.674	260
906.128	340
915.569	278
924.997	238
934.414	242
943.818	244
953.211	270
962.59	276
971.958	294
981.314	456
990.659	1154
999.99	4186
1009.31	1516
1018.62	456
1027.91	1160
1037.2	1410
1046.47	478
1055.73	372
1064.98	400
1074.22	428
1083.44	408
1092.65	418
1101.86	408
1111.05	342
1120.22	302
1129.39	260
1138.54	288
1147.69	406
1156.82	966
1165.94	516
1175.05	616
1184.14	1178
1193.23	1148
1202.3	1152
1211.36	728
1220.41	454
1229.45	398
1238.48	372
1247.5	350
1256.5	342
1265.49	342
1274.48	342
1283.45	356
1292.41	364
1301.36	390
1310.29	418
1319.22	472
1328.13	526
1337.04	476
1345.93	392
1354.81	370
1363.68	356
1372.54	378
1381.38	342
1390.22	270
1399.05	260
1407.86	272
1416.66	250
1425.46	254
1434.24	308
1443.01	478
1451.77	578
1460.52	364
1469.25	250
1477.98	266
1486.7	274
1495.4	284
1504.1	268
1512.78	256
1521.45	256
1530.11	260
1538.76	270
1547.41	276
1556.03	256
1564.65	302
1573.26	354
1581.86	812
1590.45	602
1599.02	1238
1607.59	1296
1616.14	466
1624.69	308
1633.22	304
1641.75	318
1650.26	326
1658.76	306
1667.26	280
1675.74	280
1684.21	274
1692.67	282
1701.12	268
1709.56	278
1717.99	260
1726.41	274
1734.82	264
1743.22	256
1751.61	278
1759.99	250
1768.36	266
1776.71	276
1785.06	284
1793.4	254
1801.73	288
1810.04	294
1818.35	270
1826.65	278
1834.94	280
1843.21	290
1851.48	290
1859.74	294
1867.98	280
1876.22	274
1884.45	292
1892.67	312
1900.87	298
1909.07	292
1917.26	290
1925.43	296
1933.6	298
1941.76	300
1949.91	286
1958.05	294
1966.17	306
1974.29	306
1982.4	302
1990.5	300
1998.59	300
2006.67	312
2014.74	324
2022.8	302
2030.85	302
2038.89	292
2046.92	312
2054.94	304
2062.95	320
2070.96	318
2078.95	316
2086.93	300
2094.91	294
2102.87	304
2110.83	338
2118.77	312
2126.71	320
2134.63	308
2142.55	296
2150.46	326
2158.35	326
2166.24	306
2174.12	322
2181.99	320
2189.85	324
2197.7	332
2205.55	322
2213.38	298
2221.2	334
2229.02	326
2236.82	326
2244.62	332
2252.4	312
2260.18	350
2267.95	314
2275.71	328
2283.46	332
2291.2	338
2298.93	330
2306.65	332
2314.37	336
2322.07	338
2329.77	344
2337.45	330
2345.13	334
2352.8	340
2360.46	338
2368.11	354
2375.75	328
2383.38	332
2391.01	330
2398.62	334
2406.23	350
2413.82	346
2421.41	338
2428.99	340
2436.56	340
2444.12	342
2449.79	348

File: ps-ppo-7jan25-1,0000-map3_Y09_X06.txt
182.393	1024
192.79	950
203.174	914
213.542	1022
223.897	1068
234.238	798
244.566	506
254.878	372
265.178	326
275.463	318
285.734	276
295.992	240
306.236	238
316.467	226
326.684	222
336.887	226
347.075	204
357.251	204
367.413	214
377.562	228
387.697	222
397.819	276
407.926	334
418.02	266
428.101	214
438.169	198
448.223	200
458.264	172
468.291	170
478.306	158
488.307	158
498.294	170
508.269	182
518.23	178
528.177	200
538.113	230
548.034	254
557.942	234
567.838	238
577.72	230
587.589	198
597.446	194
607.289	212
617.119	412
626.936	522
636.741	216
646.533	152
656.313	156
666.078	164
675.831	138
685.571	150
695.299	164
705.014	184
714.716	218
724.406	296
734.082	260
743.746	358
753.398	400
763.037	450
772.664	402
782.278	442
791.879	638
801.467	582
811.044	360
820.608	284
830.16	260
839.699	338
849.226	304
858.741	270
868.243	264
877.731	274
887.209	258
896.674	254
906.128	338
915.569	288
924.997	240
934.414	240
943.818	242
953.211	240
962.59	284
971.958	320
981.314	458
990.659	1106
999.99	4178
1009.31	1542
1018.62	458
1027.91	1138
1037.2	1398
1046.47	458
1055.73	360
1064.98	402
1074.22	410
1083.44	378
1092.65	392
1101.86	402
1111.05	322
1120.22	320
1129.39	228
1138.54	262
1147.69	398
1156.82	936
1165.94	496
1175.05	616
1184.14	1168
1193.23	1080
1202.3	1120
1211.36	698
1220.41	450
1229.45	422
1238.48	342
1247.5	352
1256.5	316
1265.49	340
1274.48	324
1283.45	352
1292.41	376
1301.36	394
1310.29	402
1319.22	442
1328.13	520
1337.04	456
1345.93	360
1354.81	346
1363.68	354
1372.54	364
1381.38	308
1390.22	278
1399.05	262
1407.86	258
1416.66	248
1425.46	268
1434.24	310
1443.01	462
1451.77	600
1460.52	376
1469.25	268
1477.98	258
1486.7	280
1495.4	280
1504.1	264
1512.78	260
1521.45	260
1530.11	252
1538.76	248
1547.41	270
1556.03	278
1564.65	292
1573.26	348
1581.86	826
1590.45	588
1599.02	1210
1607.59	1280
1616.14	474
1624.69	342
1633.22	300
1641.75	330
1650.26	324
1658.76	292
1667.26	256
1675.74	288
1684.21	272
1692.67	274
1701.12	284
1709.56	270
1717.99	272
1726.41	256
1734.82	254
1743.22	268
1751.61	272
1759.99	284
1768.36	284
1776.71	272
1785.06	280
1793.4	272
1801.73	270
1810.04	264
1818.35	258
1826.65	252
1834.94	276
1843.21	284
1851.48	288
1859.74	280
1867.98	274
1876.22	282
1884.45	276
1892.67	286
1900.87	286
1909.07	284
1917.26	296
1925.43	292
1933.6	294
1941.76	290
1949.91	286
1958.05	298
1966.17	294
1974.29	306
1982.4	294
1990.5	280
1998.59	288
2006.67	302
2014.74	302
2022.8	286
2030.85	322
2038.89	298
2046.92	320
2054.94	312
2062.95	318
2070.96	314
2078.95	314
2086.93	322
2094.91	316
2102.87	330
2110.83	310
2118.77	314
2126.71	320
2134.63	310
2142.55	330
2150.46	316
2158.35	298
2166.24	320
2174.12	312
2181.99	324
2189.85	314
2197.7	340
2205.55	320
2213.38	332
2221.2	330
2229.02	344
2236.82	324
2244.62	324
2252.4	332
2260.18	330
2267.95	334
2275.71	344
2283.46	342
2291.2	332
2298.93	316
2306.65	338
2314.37	348
2322.07	322
2329.77	330
2337.45	342
2345.13	340
2352.8	340
2360.46	338
2368.11	334
2375.75	334
2383.38	358
2391.01	334
2398.62	354
2406.23	324
2413.82	350
2421.41	356
2428.99	338
2436.56	364
2444.12	342
2449.79	358

File: ps-ppo-7jan25-1,0000-map3_Y09_X07.txt
182.393	1050
192.79	926
203.174	938
213.542	1026
223.897	1090
234.238	854
244.566	524
254.878	410
265.178	362
275.463	332
285.734	300
295.992	240
306.236	218
316.467	260
326.684	246
336.887	246
347.075	222
357.251	236
367.413	248
377.562	252
387.697	282
397.819	290
407.926	370
418.02	308
428.101	252
438.169	220
448.223	232
458.264	206
468.291	178
478.306	186
488.307	198
498.294	200
508.269	216
518.23	192
528.177	222
538.113	270
548.034	270
557.942	258
567.838	250
577.72	260
587.589	216
597.446	234
607.289	266
617.119	432
626.936	536
636.741	234
646.533	202
656.313	182
666.078	176
675.831	166
685.571	172
695.299	188
705.014	208
714.716	202
724.406	310
734.082	288
743.746	406
753.398	416
763.037	494
772.664	438
782.278	476
791.879	648
801.467	630
811.044	406
820.608	298
830.16	270
839.699	342
849.226	338
858.741	304
868.243	316
877.731	292
887.209	278
896.674	296
906.128	360
915.569	306
924.997	256
934.414	268
943.818	278
953.211	270
962.59	294
971.958	334
981.314	466
990.659	1190
999.99	4258
1009.31	1582
1018.62	466
1027.91	1216
1037.2	1444
1046.47	502
1055.73	394
1064.98	418
1074.22	450
1083.44	440
1092.65	432
1101.86	418
1111.05	360
1120.22	320
1129.39	280
1138.54	302
1147.69	430
1156.82	970
1165.94	522
1175.05	638
1184.14	1224
1193.23	1128
1202.3	1166
1211.36	740
1220.41	502
1229.45	440
1238.48	384
1247.5	374
1256.5	368
1265.49	368
1274.48	334
1283.45	366
1292.41	396
1301.36	410
1310.29	416
1319.22	498
1328.13	516
1337.04	514
1345.93	404
1354.81	380
1363.68	384
1372.54	406
1381.38	356
1390.22	284
1399.05	296
1407.86	276
1416.66	274
1425.46	268
1434.24	324
1443.01	468
1451.77	614
1460.52	388
1469.25	298
1477.98	288
1486.7	268
1495.4	312
1504.1	256
1512.78	254
1521.45	266
1530.11	286
1538.76	278
1547.41	300
1556.03	300
1564.65	318
1573.26	382
1581.86	844
1590.45	594
1599.02	1262
1607.59	1254
1616.14	488
1624.69	366
1633.22	318
1641.75	348
1650.26	342
1658.76	294
1667.26	276
1675.74	300
1684.21	308
1692.67	306
1701.12	296
1709.56	290
1717.99	294
1726.41	266
1734.82	272
1743.22	262
1751.61	280
1759.99	296
1768.36	286
1776.71	288
1785.06	304
1793.4	282
1801.73	290
1810.04	326
1818.35	324
1826.65	298
1834.94	328
1843.21	326
1851.48	306
1859.74	300
1867.98	292
1876.22	300
1884.45	294
1892.67	310
1900.87	304
1909.07	298
1917.26	332
1925.43	328
1933.6	316
1941.76	318
1949.91	316
1958.05	320
1966.17	318
1974.29	326
1982.4	300
1990.5	328
1998.59	294
2006.67	310
2014.74	300
2022.8	318
2030.85	304
2038.89	330
2046.92	328
2054.94	324
2062.95	336
2070.96	314
2078.95	340
2086.93	348
2094.91	324
2102.87	342
2110.83	322
2118.77	334
2126.71	324
2134.63	348
2142.55	328
2150.46	332
2158.35	330
2166.24	338
2174.12	336
2181.99	326
2189.85	338
2197.7	344
2205.55	340
2213.38	326
2221.2	336
2229.02	338
2236.82	322
2244.62	336
2252.4	334
2260.18	348
2267.95	350
2275.71	358
2283.46	332
2291.2	354
2298.93	348
2306.65	340
2314.37	356
2322.07	348
2329.77	346
2337.45	360
2345.13	328
2352.8	348
2360.46	350
2368.11	328
2375.75	352
2383.38	352
2391.01	356
2398.62	352
2406.23	358
2413.82	368
2421.41	334
2428.99	362
2436.56	352
2444.12	358
2449.79	374

File: ps-ppo-7jan25-1,0000-map3_Y09_X10.txt
182.393	1008
192.79	934
203.174	916
213.542	1014
223.897	1058
234.238	824
244.566	522
254.878	372
265.178	336
275.463	304
285.734	288
295.992	232
306.236	224
316.467	234
326.684	226
336.887	232
347.075	204
357.251	202
367.413	206
377.562	224
387.697	270
397.819	274
407.926	328
418.02	284
428.101	236
438.169	222
448.223	200
458.264	184
468.291	180
478.306	174
488.307	172
498.294	174
508.269	192
518.23	190
528.177	196
538.113	246
548.034	260
557.942	244
567.838	240
577.72	240
587.589	204
597.446	204
607.289	258
617.119	412
626.936	524
636.741	214
646.533	172
656.313	164
666.078	156
675.831	168
685.571	178
695.299	170
705.014	200
714.716	194
724.406	280
734.082	272
743.746	362
753.398	420
763.037	480
772.664	416
782.278	430
791.879	648
801.467	616
811.044	396
820.608	292
830.16	256
839.699	332
849.226	330
858.741	296
868.243	272
877.731	278
887.209	272
896.674	270
906.128	342
915.569	310
924.997	248
934.414	234
943.818	240
953.211	256
962.59	300
971.958	310
981.314	482
990.659	1192
999.99	4250
1009.31	1468
1018.62	460
1027.91	1182
1037.2	1386
1046.47	468
1055.73	392
1064.98	412
1074.22	424
1083.44	418
1092.65	400
1101.86	406
1111.05	334
1120.22	292
1129.39	270
1138.54	282
1147.69	396
1156.82	958
1165.94	522
1175.05	602
1184.14	1198
1193.23	1098
1202.3	1134
1211.36	718
1220.41	476
1229.45	426
1238.48	366
1247.5	356
1256.5	356
1265.49	356
1274.48	334
1283.45	356
1292.41	370
1301.36	378
1310.29	428
1319.22	426
1328.13	514
1337.04	478
1345.93	376
1354.81	354
1363.68	376
1372.54	384
1381.38	332
1390.22	274
1399.05	258
1407.86	258
1416.66	254
1425.46	258
1434.24	336
1443.01	488
1451.77	580
1460.52	378
1469.25	278
1477.98	262
1486.7	260
1495.4	302
1504.1	272
1512.78	252
1521.45	258
1530.11	266
1538.76	274
1547.41	268
1556.03	292
1564.65	302
1573.26	380
1581.86	752
1590.45	580
1599.02	1220
1607.59	1264
1616.14	474
1624.69	358
1633.22	300
1641.75	302
1650.26	336
1658.76	296
1667.26	276
1675.74	290
1684.21	296
1692.67	282
1701.12	284
1709.56	284
1717.99	276
1726.41	262
1734.82	260
1743.22	286
1751.61	296
1759.99	258
1768.36	264
1776.71	290
1785.06	270
1793.4	276
1801.73	280
1810.04	274
1818.35	290
1826.65	310
1834.94	270
1843.21	306
1851.48	290
1859.74	288
1867.98	288
1876.22	282
1884.45	290
1892.67	272
1900.87	290
1909.07	298
1917.26	300
1925.43	294
1933.6	302
1941.76	300
1949.91	286
1958.05	314
1966.17	302
1974.29	318
1982.4	302
1990.5	290
1998.59	292
2006.67	304
2014.74	300
2022.8	310
2030.85	296
2038.89	320
2046.92	314
2054.94	310
2062.95	318
2070.96	326
2078.95	320
2086.93	324
2094.91	322
2102.87	304
2110.83	316
2118.77	324
2126.71	324
2134.63	336
2142.55	322
2150.46	320
2158.35	340
2166.24	322
2174.12	318
2181.99	330
2189.85	334
2197.7	324
2205.55	338
2213.38	336
2221.2	336
2229.02	314
2236.82	336
2244.62	326
2252.4	338
2260.18	318
2267.95	344
2275.71	336
2283.46	318
2291.2	342
2298.93	318
2306.65	352
2314.37	338
2322.07	326
2329.77	346
2337.45	336
2345.13	356
2352.8	336
2360.46	330
2368.11	336
2375.75	348
2383.38	346
2391.01	350
2398.62	354
2406.23	348
2413.82	340
2421.41	352
2428.99	360
2436.56	338
2444.12	368
2449.79	368

File: ps-ppo-7jan25-1,0000-map3_Y10_X00.txt
182.393	1044
192.79	970
203.174	932
213.542	1068
223.897	1100
234.238	840
244.566	532
254.878	402
265.178	364
275.463	318
285.734	308
295.992	280
306.236	254
316.467	244
326.684	238
336.887	238
347.075	246
357.251	222
367.413	238
377.562	270
387.697	274
397.819	286
407.926	356
418.02	288
428.101	266
438.169	230
448.223	224
458.264	194
468.291	184
478.306	186
488.307	180
498.294	198
508.269	196
518.23	214
528.177	218
538.113	230
548.034	298
557.942	242
567.838	272
577.72	250
587.589	210
597.446	218
607.289	276
617.119	454
626.936	534
636.741	246
646.533	194
656.313	172
666.078	170
675.831	190
685.571	170
695.299	180
705.014	222
714.716	226
724.406	302
734.082	278
743.746	402
753.398	426
763.037	502
772.664	442
782.278	484
791.879	666
801.467	628
811.044	400
820.608	308
830.16	296
839.699	352
849.226	366
858.741	316
868.243	318
877.731	318
887.209	290
896.674	290
906.128	370
915.569	322
924.997	270
934.414	272
943.818	266
953.211	282
962.59	314
971.958	346
981.314	476
990.659	1204
999.99	4264
1009.31	1564
1018.62	460
1027.91	1214
1037.2	1416
1046.47	466
1055.73	416
1064.98	434
1074.22	462
1083.44	456
1092.65	440
1101.86	444
1111.05	362
1120.22	318
1129.39	288
1138.54	282
1147.69	410
1156.82	934
1165.94	512
1175.05	644
1184.14	1228
1193.23	1132
1202.3	1174
1211.36	766
1220.41	496
1229.45	414
1238.48	406
1247.5	352
1256.5	376
1265.49	372
1274.48	372
1283.45	346
1292.41	380
1301.36	408
1310.29	448
1319.22	502
1328.13	534
1337.04	500
1345.93	394
1354.81	374
1363.68	384
1372.54	382
1381.38	376
1390.22	278
1399.05	282
1407.86	286
1416.66	282
1425.46	288
1434.24	322
1443.01	510
1451.77	616
1460.52	382
1469.25	274
1477.98	270
1486.7	270
1495.4	312
1504.1	286
1512.78	254
1521.45	258
1530.11	278
1538.76	268
1547.41	298
1556.03	292
1564.65	310
1573.26	402
1581.86	802
1590.45	576
1599.02	1260
1607.59	1264
1616.14	486
1624.69	354
1633.22	332
1641.75	344
1650.26	340
1658.76	318
1667.26	300
1675.74	296
1684.21	300
1692.67	300
1701.12	292
1709.56	276
1717.99	280
1726.41	278
1734.82	268
1743.22	280
1751.61	290
1759.99	278
1768.36	276
1776.71	288
1785.06	296
1793.4	276
1801.73	288
1810.04	282
1818.35	314
1826.65	296
1834.94	298
1843.21	280
1851.48	296
1859.74	292
1867.98	304
1876.22	294
1884.45	288
1892.67	274
1900.87	274
1909.07	302
1917.26	302
1925.43	320
1933.6	312
1941.76	306
1949.91	302
1958.05	312
1966.17	314
1974.29	312
1982.4	306
1990.5	324
1998.59	316
2006.67	326
2014.74	308
2022.8	316
2030.85	314
2038.89	336
2046.92	302
2054.94	324
2062.95	320
2070.96	312
2078.95	310
2086.93	308
2094.91	314
2102.87	338
2110.83	330
2118.77	332
2126.71	312
2134.63	334
2142.55	320
2150.46	344
2158.35	336
2166.24	318
2174.12	318
2181.99	322
2189.85	322
2197.7	332
2205.55	324
2213.38	354
2221.2	316
2229.02	340
2236.82	308
2244.62	358
2252.4	328
2260.18	314
2267.95	352
2275.71	340
2283.46	352
2291.2	324
2298.93	324
2306.65	348
2314.37	354
2322.07	350
2329.77	336
2337.45	348
2345.13	350
2352.8	346
2360.46	352
2368.11	330
2375.75	356
2383.38	326
2391.01	348
2398.62	368
2406.23	358
2413.82	344
2421.41	354
2428.99	340
2436.56	374
2444.12	348
2449.79	352

File: ps-ppo-7jan25-1,0000-map3_Y10_X01.txt
182.393	1030
192.79	918
203.174	938
213.542	1038
223.897	1086
234.238	800
244.566	500
254.878	366
265.178	320
275.463	306
285.734	268
295.992	234
306.236	226
316.467	238
326.684	230
336.887	228
347.075	212
357.251	186
367.413	202
377.562	228
387.697	250
397.819	260
407.926	336
418.02	256
428.101	220
438.169	218
448.223	194
458.264	174
468.291	168
478.306	168
488.307	166
498.294	158
508.269	178
518.23	176
528.177	198
538.113	238
548.034	234
557.942	228
567.838	230
577.72	236
587.589	210
597.446	206
607.289	244
617.119	412
626.936	516
636.741	232
646.533	170
656.313	156
666.078	166
675.831	176
685.571	164
695.299	166
705.014	206
714.716	200
724.406	280
734.082	270
743.746	368
753.398	404
763.037	484
772.664	404
782.278	422
791.879	618
801.467	602
811.044	360
820.608	268
830.16	244
839.699	336
849.226	320
858.741	290
868.243	274
877.731	260
887.209	246
896.674	266
906.128	340
915.569	272
924.997	236
934.414	230
943.818	232
953.211	266
962.59	296
971.958	332
981.314	454
990.659	1166
999.99	4298
1009.31	1536
1018.62	458
1027.91	1182
1037.2	1426
1046.47	480
1055.73	378
1064.98	394
1074.22	410
1083.44	384
1092.65	400
1101.86	398
1111.05	312
1120.22	300
1129.39	254
1138.54	292
1147.69	402
1156.82	932
1165.94	498
1175.05	614
1184.14	1176
1193.23	1142
1202.3	1158
1211.36	728
1220.41	444
1229.45	412
1238.48	376
1247.5	366
1256.5	352
1265.49	364
1274.48	324
1283.45	334
1292.41	346
1301.36	374
1310.29	412
1319.22	440
1328.13	524
1337.04	476
1345.93	388
1354.81	356
1363.68	358
1372.54	368
1381.38	302
1390.22	250
1399.05	244
1407.86	266
1416.66	246
1425.46	268
1434.24	314
1443.01	462
1451.77	584
1460.52	376
1469.25	268
1477.98	260
1486.7	256
1495.4	294
1504.1	250
1512.78	242
1521.45	256
1530.11	268
1538.76	258
1547.41	266
1556.03	272
1564.65	308
1573.26	372
1581.86	816
1590.45	564
1599.02	1212
1607.59	1250
1616.14	464
1624.69	332
1633.22	302
1641.75	320
1650.26	322
1658.76	286
1667.26	276
1675.74	296
1684.21	268
1692.67	274
1701.12	268
1709.56	262
1717.99	260
1726.41	288
1734.82	274
1743.22	264
1751.61	276
1759.99	262
1768.36	268
1776.71	266
1785.06	274
1793.4	280
1801.73	264
1810.04	274
1818.35	270
1826.65	278
1834.94	280
1843.21	262
1851.48	280
1859.74	274
1867.98	264
1876.22	284
1884.45	274
1892.67	274
1900.87	284
1909.07	284
1917.26	286
1925.43	298
1933.6	308
1941.76	270
1949.91	294
1958.05	280
1966.17	298
1974.29	276
1982.4	278
1990.5	280
1998.59	306
2006.67	312
2014.74	288
2022.8	288
2030.85	306
2038.89	290
2046.92	312
2054.94	304
2062.95	312
2070.96	330
2078.95	298
2086.93	306
2094.91	304
2102.87	310
2110.83	312
2118.77	324
2126.71	322
2134.63	306
2142.55	328
2150.46	306
2158.35	300
2166.24	322
2174.12	296
2181.99	302
2189.85	304
2197.7	314
2205.55	320
2213.38	324
2221.2	326
2229.02	320
2236.82	304
2244.62	298
2252.4	308
2260.18	314
2267.95	314
2275.71	318
2283.46	326
2291.2	320
2298.93	332
2306.65	322
2314.37	326
2322.07	324
2329.77	334
2337.45	320
2345.13	332
2352.8	338
2360.46	334
2368.11	332
2375.75	352
2383.38	318
2391.01	334
2398.62	342
2406.23	354
2413.82	344
2421.41	334
2428.99	336
2436.56	360
2444.12	334
2449.79	338