Folder: NRC_SU25_Spectral_Classification/Mixture_Classification/Jesse_Dataset_v2/Pure Raman/Polystyrene/785nm (part 5)

File: ps-ppo-6jan25-1,0000-map3_Y05_X01.txt
204.377	816
211.048	898
217.712	910
224.369	894
231.019	720
237.661	532
244.297	396
250.924	294
257.546	274
264.16	264
270.766	240
277.365	246
283.958	204
290.543	190
297.121	174
303.693	160
310.256	170
316.813	170
323.362	172
329.905	168
336.441	168
342.969	158
349.491	150
356.006	148
362.513	156
369.014	150
375.508	148
381.994	176
388.473	176
394.947	210
401.412	214
407.871	226
414.323	182
420.768	158
427.206	148
433.637	150
440.062	146
446.479	132
452.89	126
459.293	110
465.691	118
472.081	100
478.463	102
484.84	106
491.21	96
497.573	104
503.929	116
510.279	110
516.621	124
522.957	132
529.287	128
535.609	148
541.925	148
548.234	150
554.536	150
560.832	130
567.12	124
573.403	138
579.679	132
585.948	104
592.211	112
598.466	104
604.715	128
610.958	136
617.194	304
623.424	478
629.647	146
635.864	102
642.074	72
648.276	78
654.473	76
660.664	78
666.847	80
673.025	88
679.195	82
685.36	68
691.517	76
697.669	94
703.814	104
709.953	100
716.085	96
722.21	132
728.33	130
734.443	138
740.549	192
746.65	190
752.743	218
758.831	230
764.912	218
770.986	198
777.055	198
783.117	240
789.173	308
795.222	350
801.265	280
807.302	184
813.333	168
819.357	124
825.376	116
831.387	120
837.392	152
843.392	158
849.386	146
855.372	122
861.353	120
867.328	126
873.296	128
879.258	134
885.214	126
891.164	116
897.108	120
903.046	140
908.977	146
914.903	126
920.822	106
926.735	98
932.643	100
938.543	106
944.439	102
950.328	106
956.21	110
962.088	120
967.958	128
973.824	146
979.682	188
985.534	262
991.382	754
997.222	1226
1003.06	2806
1008.89	448
1014.71	192
1020.53	218
1026.34	472
1032.14	900
1037.94	398
1043.73	218
1049.52	168
1055.3	162
1061.08	152
1066.85	180
1072.61	188
1078.37	172
1084.12	150
1089.87	164
1095.61	162
1101.34	164
1107.07	138
1112.8	120
1118.51	122
1124.22	102
1129.93	114
1135.63	116
1141.32	130
1147.01	170
1152.69	354
1158.37	348
1164.04	206
1169.71	218
1175.37	300
1181.02	534
1186.67	452
1192.31	454
1197.95	484
1203.58	424
1209.2	326
1214.82	230
1220.44	208
1226.05	196
1231.65	188
1237.25	164
1242.84	166
1248.42	156
1254	164
1259.58	172
1265.15	174
1270.71	156
1276.27	164
1281.82	176
1287.37	186
1292.91	188
1298.45	206
1303.98	220
1309.5	226
1315.02	236
1320.53	276
1326.04	272
1331.54	272
1337.04	282
1342.53	258
1348.02	262
1353.5	258
1358.98	270
1364.45	272
1369.91	256
1375.37	272
1380.82	272
1386.27	242
1391.71	230
1397.15	224
1402.58	232
1408.01	236
1413.43	228
1418.85	206
1424.26	206
1429.66	218
1435.06	242
1440.46	286
1445.85	322
1451.23	316
1456.61	266
1461.98	212
1467.35	176
1472.71	178
1478.07	192
1483.42	180
1488.77	160
1494.11	172
1499.45	162
1504.78	154
1510.11	162
1515.43	170
1520.74	166
1526.05	162
1531.36	154
1536.66	158
1541.95	156
1547.24	160
1552.52	158
1557.8	164
1563.08	154
1568.35	170
1573.61	188
1578.87	262
1584.12	388
1589.37	228
1594.61	310
1599.85	612
1605.08	558
1610.31	280
1615.53	198
1620.75	186
1625.96	162
1631.17	158
1636.37	152
1641.57	144
1646.76	148
1651.95	148
1657.13	130
1662.31	126
1667.48	130
1672.65	120
1677.81	134
1682.97	124
1688.12	130
1693.27	130
1698.41	116
1702.26	126

File: ps-ppo-6jan25-1,0000-map3_Y05_X02.txt
204.377	842
211.048	900
217.712	924
224.369	906
231.019	732
237.661	544
244.297	392
250.924	312
257.546	288
264.16	268
270.766	252
277.365	244
283.958	220
290.543	192
297.121	184
303.693	184
310.256	172
316.813	174
323.362	174
329.905	178
336.441	164
342.969	164
349.491	168
356.006	160
362.513	170
369.014	160
375.508	158
381.994	172
388.473	192
394.947	192
401.412	210
407.871	222
414.323	206
420.768	182
427.206	160
433.637	148
440.062	140
446.479	144
452.89	122
459.293	126
465.691	118
472.081	116
478.463	98
484.84	112
491.21	102
497.573	114
503.929	118
510.279	102
516.621	116
522.957	128
529.287	134
535.609	136
541.925	146
548.234	152
554.536	142
560.832	136
567.12	134
573.403	142
579.679	122
585.948	116
592.211	116
598.466	118
604.715	134
610.958	146
617.194	326
623.424	474
629.647	152
635.864	108
642.074	94
648.276	86
654.473	90
660.664	84
666.847	82
673.025	88
679.195	88
685.36	84
691.517	82
697.669	90
703.814	100
709.953	110
716.085	104
722.21	146
728.33	142
734.443	134
740.549	186
746.65	192
752.743	210
758.831	232
764.912	220
770.986	216
777.055	206
783.117	252
789.173	310
795.222	356
801.265	290
807.302	188
813.333	160
819.357	130
825.376	112
831.387	112
837.392	158
843.392	164
849.386	154
855.372	132
861.353	134
867.328	128
873.296	122
879.258	120
885.214	118
891.164	116
897.108	120
903.046	142
908.977	152
914.903	122
920.822	114
926.735	98
932.643	102
938.543	110
944.439	112
950.328	102
956.21	112
962.088	122
967.958	128
973.824	130
979.682	196
985.534	280
991.382	768
997.222	1222
1003.06	2890
1008.89	450
1014.71	196
1020.53	212
1026.34	480
1032.14	910
1037.94	388
1043.73	200
1049.52	164
1055.3	158
1061.08	166
1066.85	178
1072.61	178
1078.37	174
1084.12	154
1089.87	168
1095.61	168
1101.34	174
1107.07	154
1112.8	126
1118.51	126
1124.22	98
1129.93	104
1135.63	110
1141.32	132
1147.01	178
1152.69	358
1158.37	344
1164.04	214
1169.71	222
1175.37	312
1181.02	522
1186.67	454
1192.31	478
1197.95	508
1203.58	426
1209.2	314
1214.82	240
1220.44	202
1226.05	192
1231.65	182
1237.25	170
1242.84	174
1248.42	174
1254	158
1259.58	170
1265.15	160
1270.71	166
1276.27	168
1281.82	168
1287.37	188
1292.91	188
1298.45	196
1303.98	214
1309.5	234
1315.02	252
1320.53	270
1326.04	284
1331.54	300
1337.04	290
1342.53	272
1348.02	250
1353.5	268
1358.98	270
1364.45	264
1369.91	284
1375.37	272
1380.82	266
1386.27	248
1391.71	248
1397.15	234
1402.58	218
1408.01	214
1413.43	222
1418.85	218
1424.26	208
1429.66	206
1435.06	250
1440.46	278
1445.85	316
1451.23	332
1456.61	278
1461.98	210
1467.35	184
1472.71	186
1478.07	170
1483.42	182
1488.77	178
1494.11	188
1499.45	166
1504.78	162
1510.11	182
1515.43	150
1520.74	166
1526.05	150
1531.36	162
1536.66	166
1541.95	152
1547.24	166
1552.52	162
1557.8	154
1563.08	164
1568.35	160
1573.61	202
1578.87	254
1584.12	406
1589.37	242
1594.61	306
1599.85	600
1605.08	558
1610.31	276
1615.53	202
1620.75	176
1625.96	154
1631.17	142
1636.37	152
1641.57	160
1646.76	142
1651.95	150
1657.13	140
1662.31	128
1667.48	124
1672.65	142
1677.81	132
1682.97	130
1688.12	132
1693.27	122
1698.41	116
1702.26	124

File: ps-ppo-6jan25-1,0000-map3_Y05_X05.txt
204.377	836
211.048	894
217.712	884
224.369	872
231.019	748
237.661	550
244.297	372
250.924	312
257.546	284
264.16	272
270.766	258
277.365	232
283.958	214
290.543	190
297.121	174
303.693	164
310.256	176
316.813	176
323.362	176
329.905	172
336.441	178
342.969	172
349.491	164
356.006	150
362.513	158
369.014	148
375.508	168
381.994	174
388.473	192
394.947	214
401.412	216
407.871	236
414.323	210
420.768	168
427.206	166
433.637	150
440.062	148
446.479	136
452.89	122
459.293	116
465.691	110
472.081	116
478.463	106
484.84	106
491.21	94
497.573	116
503.929	120
510.279	114
516.621	118
522.957	124
529.287	142
535.609	152
541.925	156
548.234	148
554.536	150
560.832	142
567.12	150
573.403	154
579.679	144
585.948	110
592.211	124
598.466	124
604.715	146
610.958	142
617.194	318
623.424	474
629.647	162
635.864	116
642.074	96
648.276	86
654.473	90
660.664	84
666.847	86
673.025	74
679.195	82
685.36	78
691.517	84
697.669	96
703.814	114
709.953	106
716.085	104
722.21	146
728.33	140
734.443	142
740.549	190
746.65	202
752.743	224
758.831	238
764.912	230
770.986	206
777.055	200
783.117	248
789.173	314
795.222	332
801.265	296
807.302	192
813.333	154
819.357	126
825.376	114
831.387	118
837.392	152
843.392	172
849.386	130
855.372	126
861.353	126
867.328	132
873.296	122
879.258	118
885.214	118
891.164	120
897.108	120
903.046	150
908.977	138
914.903	120
920.822	102
926.735	112
932.643	98
938.543	104
944.439	98
950.328	106
956.21	100
962.088	130
967.958	126
973.824	140
979.682	186
985.534	278
991.382	778
997.222	1214
1003.06	2868
1008.89	434
1014.71	190
1020.53	220
1026.34	498
1032.14	918
1037.94	424
1043.73	198
1049.52	158
1055.3	152
1061.08	150
1066.85	176
1072.61	180
1078.37	168
1084.12	164
1089.87	174
1095.61	178
1101.34	156
1107.07	144
1112.8	134
1118.51	128
1124.22	112
1129.93	106
1135.63	108
1141.32	130
1147.01	170
1152.69	360
1158.37	356
1164.04	210
1169.71	222
1175.37	296
1181.02	528
1186.67	432
1192.31	478
1197.95	502
1203.58	454
1209.2	316
1214.82	238
1220.44	212
1226.05	190
1231.65	182
1237.25	164
1242.84	180
1248.42	176
1254	174
1259.58	172
1265.15	178
1270.71	162
1276.27	170
1281.82	168
1287.37	176
1292.91	186
1298.45	194
1303.98	214
1309.5	232
1315.02	244
1320.53	270
1326.04	308
1331.54	286
1337.04	282
1342.53	270
1348.02	252
1353.5	264
1358.98	272
1364.45	274
1369.91	270
1375.37	258
1380.82	254
1386.27	238
1391.71	224
1397.15	242
1402.58	240
1408.01	248
1413.43	220
1418.85	220
1424.26	216
1429.66	228
1435.06	244
1440.46	270
1445.85	330
1451.23	316
1456.61	274
1461.98	212
1467.35	210
1472.71	196
1478.07	168
1483.42	188
1488.77	176
1494.11	190
1499.45	176
1504.78	176
1510.11	170
1515.43	158
1520.74	160
1526.05	160
1531.36	146
1536.66	166
1541.95	166
1547.24	154
1552.52	162
1557.8	164
1563.08	170
1568.35	182
1573.61	198
1578.87	268
1584.12	412
1589.37	248
1594.61	302
1599.85	622
1605.08	564
1610.31	284
1615.53	190
1620.75	172
1625.96	170
1631.17	152
1636.37	148
1641.57	144
1646.76	150
1651.95	148
1657.13	142
1662.31	130
1667.48	132
1672.65	130
1677.81	132
1682.97	132
1688.12	130
1693.27	124
1698.41	124
1702.26	110

File: ps-ppo-6jan25-1,0000-map3_Y05_X06.txt
204.377	824
211.048	922
217.712	930
224.369	896
231.019	734
237.661	544
244.297	400
250.924	298
257.546	284
264.16	258
270.766	250
277.365	212
283.958	224
290.543	178
297.121	182
303.693	168
310.256	166
316.813	158
323.362	180
329.905	178
336.441	174
342.969	154
349.491	146
356.006	150
362.513	144
369.014	160
375.508	158
381.994	162
388.473	180
394.947	190
401.412	212
407.871	240
414.323	186
420.768	158
427.206	150
433.637	142
440.062	134
446.479	126
452.89	118
459.293	106
465.691	104
472.081	94
478.463	100
484.84	102
491.21	98
497.573	108
503.929	112
510.279	106
516.621	114
522.957	120
529.287	110
535.609	122
541.925	154
548.234	138
554.536	134
560.832	130
567.12	142
573.403	144
579.679	126
585.948	106
592.211	112
598.466	116
604.715	128
610.958	148
617.194	324
623.424	468
629.647	148
635.864	108
642.074	80
648.276	68
654.473	78
660.664	84
666.847	72
673.025	74
679.195	76
685.36	76
691.517	78
697.669	78
703.814	98
709.953	96
716.085	92
722.21	134
728.33	124
734.443	138
740.549	192
746.65	180
752.743	216
758.831	218
764.912	230
770.986	190
777.055	204
783.117	232
789.173	308
795.222	336
801.265	280
807.302	194
813.333	154
819.357	136
825.376	104
831.387	120
837.392	138
843.392	160
849.386	132
855.372	126
861.353	116
867.328	120
873.296	118
879.258	108
885.214	110
891.164	114
897.108	126
903.046	126
908.977	130
914.903	118
920.822	102
926.735	100
932.643	94
938.543	92
944.439	96
950.328	96
956.21	102
962.088	128
967.958	132
973.824	144
979.682	170
985.534	270
991.382	740
997.222	1230
1003.06	2948
1008.89	438
1014.71	190
1020.53	230
1026.34	472
1032.14	906
1037.94	426
1043.73	198
1049.52	168
1055.3	146
1061.08	170
1066.85	172
1072.61	168
1078.37	158
1084.12	176
1089.87	156
1095.61	158
1101.34	168
1107.07	132
1112.8	126
1118.51	118
1124.22	112
1129.93	112
1135.63	114
1141.32	132
1147.01	164
1152.69	352
1158.37	352
1164.04	216
1169.71	218
1175.37	280
1181.02	520
1186.67	440
1192.31	476
1197.95	490
1203.58	436
1209.2	306
1214.82	250
1220.44	206
1226.05	184
1231.65	178
1237.25	182
1242.84	174
1248.42	162
1254	152
1259.58	160
1265.15	164
1270.71	172
1276.27	172
1281.82	170
1287.37	182
1292.91	182
1298.45	208
1303.98	220
1309.5	238
1315.02	242
1320.53	282
1326.04	310
1331.54	302
1337.04	302
1342.53	264
1348.02	274
1353.5	258
1358.98	276
1364.45	272
1369.91	290
1375.37	280
1380.82	276
1386.27	248
1391.71	230
1397.15	228
1402.58	232
1408.01	236
1413.43	226
1418.85	228
1424.26	228
1429.66	228
1435.06	242
1440.46	274
1445.85	322
1451.23	332
1456.61	288
1461.98	218
1467.35	194
1472.71	198
1478.07	196
1483.42	186
1488.77	190
1494.11	188
1499.45	174
1504.78	170
1510.11	166
1515.43	166
1520.74	166
1526.05	166
1531.36	162
1536.66	166
1541.95	162
1547.24	152
1552.52	162
1557.8	182
1563.08	164
1568.35	176
1573.61	202
1578.87	268
1584.12	410
1589.37	244
1594.61	308
1599.85	612
1605.08	558
1610.31	284
1615.53	192
1620.75	166
1625.96	162
1631.17	150
1636.37	148
1641.57	162
1646.76	166
1651.95	138
1657.13	140
1662.31	126
1667.48	138
1672.65	130
1677.81	136
1682.97	132
1688.12	118
1693.27	120
1698.41	124
1702.26	122

File: ps-ppo-6jan25-1,0000-map3_Y05_X07.txt
204.377	840
211.048	862
217.712	914
224.369	874
231.019	712
237.661	542
244.297	378
250.924	310
257.546	280
264.16	264
270.766	246
277.365	224
283.958	198
290.543	198
297.121	174
303.693	162
310.256	158
316.813	160
323.362	174
329.905	170
336.441	156
342.969	158
349.491	160
356.006	154
362.513	146
369.014	160
375.508	154
381.994	158
388.473	190
394.947	190
401.412	202
407.871	224
414.323	208
420.768	164
427.206	148
433.637	158
440.062	136
446.479	130
452.89	118
459.293	108
465.691	104
472.081	108
478.463	106
484.84	96
491.21	94
497.573	108
503.929	112
510.279	110
516.621	102
522.957	116
529.287	124
535.609	144
541.925	166
548.234	136
554.536	146
560.832	138
567.12	136
573.403	134
579.679	126
585.948	122
592.211	114
598.466	112
604.715	120
610.958	146
617.194	344
623.424	484
629.647	152
635.864	104
642.074	92
648.276	80
654.473	82
660.664	82
666.847	74
673.025	70
679.195	68
685.36	74
691.517	68
697.669	96
703.814	104
709.953	98
716.085	98
722.21	130
728.33	128
734.443	126
740.549	186
746.65	200
752.743	210
758.831	240
764.912	218
770.986	196
777.055	196
783.117	248
789.173	284
795.222	348
801.265	270
807.302	200
813.333	164
819.357	126
825.376	114
831.387	106
837.392	158
843.392	154
849.386	130
855.372	132
861.353	126
867.328	118
873.296	124
879.258	116
885.214	114
891.164	114
897.108	112
903.046	136
908.977	136
914.903	114
920.822	100
926.735	102
932.643	94
938.543	88
944.439	100
950.328	102
956.21	102
962.088	118
967.958	134
973.824	138
979.682	172
985.534	276
991.382	782
997.222	1242
1003.06	2904
1008.89	434
1014.71	166
1020.53	218
1026.34	492
1032.14	902
1037.94	408
1043.73	210
1049.52	162
1055.3	154
1061.08	162
1066.85	174
1072.61	186
1078.37	178
1084.12	156
1089.87	170
1095.61	182
1101.34	158
1107.07	148
1112.8	118
1118.51	122
1124.22	108
1129.93	108
1135.63	112
1141.32	132
1147.01	176
1152.69	350
1158.37	332
1164.04	220
1169.71	242
1175.37	292
1181.02	518
1186.67	454
1192.31	476
1197.95	504
1203.58	448
1209.2	318
1214.82	228
1220.44	202
1226.05	196
1231.65	170
1237.25	180
1242.84	160
1248.42	162
1254	156
1259.58	168
1265.15	180
1270.71	178
1276.27	174
1281.82	184
1287.37	180
1292.91	196
1298.45	198
1303.98	208
1309.5	232
1315.02	238
1320.53	284
1326.04	300
1331.54	304
1337.04	294
1342.53	274
1348.02	264
1353.5	274
1358.98	284
1364.45	296
1369.91	290
1375.37	288
1380.82	270
1386.27	256
1391.71	244
1397.15	242
1402.58	232
1408.01	240
1413.43	220
1418.85	230
1424.26	194
1429.66	226
1435.06	262
1440.46	284
1445.85	344
1451.23	330
1456.61	274
1461.98	218
1467.35	204
1472.71	198
1478.07	190
1483.42	184
1488.77	180
1494.11	180
1499.45	178
1504.78	174
1510.11	158
1515.43	168
1520.74	182
1526.05	164
1531.36	172
1536.66	176
1541.95	168
1547.24	168
1552.52	168
1557.8	164
1563.08	164
1568.35	164
1573.61	202
1578.87	272
1584.12	402
1589.37	248
1594.61	328
1599.85	628
1605.08	552
1610.31	274
1615.53	194
1620.75	186
1625.96	158
1631.17	148
1636.37	150
1641.57	166
1646.76	160
1651.95	154
1657.13	146
1662.31	142
1667.48	144
1672.65	140
1677.81	134
1682.97	130
1688.12	126
1693.27	130
1698.41	118
1702.26	118

File: ps-ppo-6jan25-1,0000-map3_Y05_X10.txt
204.377	840
211.048	896
217.712	918
224.369	882
231.019	712
237.661	556
244.297	390
250.924	302
257.546	276
264.16	258
270.766	264
277.365	236
283.958	210
290.543	196
297.121	186
303.693	176
310.256	168
316.813	168
323.362	174
329.905	178
336.441	170
342.969	174
349.491	148
356.006	158
362.513	154
369.014	150
375.508	162
381.994	178
388.473	178
394.947	200
401.412	222
407.871	230
414.323	202
420.768	166
427.206	160
433.637	142
440.062	144
446.479	134
452.89	122
459.293	106
465.691	110
472.081	116
478.463	98
484.84	108
491.21	106
497.573	110
503.929	100
510.279	118
516.621	104
522.957	112
529.287	124
535.609	140
541.925	150
548.234	146
554.536	118
560.832	146
567.12	138
573.403	142
579.679	122
585.948	118
592.211	116
598.466	118
604.715	142
610.958	142
617.194	330
623.424	454
629.647	156
635.864	114
642.074	84
648.276	86
654.473	86
660.664	76
666.847	88
673.025	86
679.195	84
685.36	76
691.517	76
697.669	82
703.814	106
709.953	108
716.085	108
722.21	136
728.33	132
734.443	134
740.549	178
746.65	194
752.743	210
758.831	240
764.912	216
770.986	218
777.055	198
783.117	238
789.173	306
795.222	364
801.265	300
807.302	188
813.333	162
819.357	138
825.376	106
831.387	110
837.392	158
843.392	164
849.386	142
855.372	134
861.353	130
867.328	132
873.296	122
879.258	122
885.214	102
891.164	118
897.108	116
903.046	162
908.977	134
914.903	120
920.822	106
926.735	104
932.643	100
938.543	86
944.439	108
950.328	116
956.21	106
962.088	118
967.958	130
973.824	126
979.682	190
985.534	278
991.382	792
997.222	1238
1003.06	2812
1008.89	434
1014.71	194
1020.53	230
1026.34	522
1032.14	866
1037.94	408
1043.73	216
1049.52	174
1055.3	164
1061.08	150
1066.85	182
1072.61	174
1078.37	172
1084.12	172
1089.87	176
1095.61	178
1101.34	170
1107.07	144
1112.8	144
1118.51	124
1124.22	108
1129.93	110
1135.63	110
1141.32	134
1147.01	170
1152.69	346
1158.37	370
1164.04	210
1169.71	234
1175.37	306
1181.02	526
1186.67	442
1192.31	478
1197.95	498
1203.58	446
1209.2	328
1214.82	242
1220.44	220
1226.05	202
1231.65	180
1237.25	174
1242.84	164
1248.42	178
1254	172
1259.58	166
1265.15	188
1270.71	178
1276.27	172
1281.82	184
1287.37	186
1292.91	196
1298.45	218
1303.98	224
1309.5	240
1315.02	246
1320.53	284
1326.04	306
1331.54	310
1337.04	302
1342.53	296
1348.02	264
1353.5	282
1358.98	274
1364.45	290
1369.91	286
1375.37	290
1380.82	268
1386.27	262
1391.71	230
1397.15	250
1402.58	240
1408.01	234
1413.43	218
1418.85	238
1424.26	224
1429.66	242
1435.06	258
1440.46	294
1445.85	338
1451.23	326
1456.61	268
1461.98	218
1467.35	202
1472.71	184
1478.07	194
1483.42	194
1488.77	196
1494.11	212
1499.45	184
1504.78	166
1510.11	176
1515.43	166
1520.74	164
1526.05	168
1531.36	174
1536.66	166
1541.95	166
1547.24	156
1552.52	168
1557.8	176
1563.08	186
1568.35	182
1573.61	204
1578.87	282
1584.12	412
1589.37	262
1594.61	326
1599.85	630
1605.08	548
1610.31	264
1615.53	196
1620.75	184
1625.96	160
1631.17	164
1636.37	142
1641.57	164
1646.76	158
1651.95	154
1657.13	128
1662.31	136
1667.48	136
1672.65	126
1677.81	130
1682.97	134
1688.12	138
1693.27	140
1698.41	124
1702.26	120

File: ps-ppo-6jan25-1,0000-map3_Y06_X00.txt
204.377	834
211.048	880
217.712	902
224.369	878
231.019	708
237.661	526
244.297	388
250.924	302
257.546	270
264.16	256
270.766	236
277.365	226
283.958	212
290.543	186
297.121	172
303.693	172
310.256	164
316.813	158
323.362	162
329.905	174
336.441	164
342.969	156
349.491	154
356.006	148
362.513	150
369.014	136
375.508	166
381.994	172
388.473	174
394.947	188
401.412	204
407.871	222
414.323	198
420.768	166
427.206	144
433.637	142
440.062	128
446.479	130
452.89	112
459.293	106
465.691	104
472.081	118
478.463	104
484.84	86
491.21	90
497.573	104
503.929	106
510.279	110
516.621	112
522.957	110
529.287	128
535.609	146
541.925	154
548.234	140
554.536	148
560.832	134
567.12	140
573.403	140
579.679	112
585.948	110
592.211	114
598.466	102
604.715	132
610.958	140
617.194	314
623.424	464
629.647	144
635.864	110
642.074	94
648.276	82
654.473	74
660.664	84
666.847	76
673.025	78
679.195	78
685.36	68
691.517	80
697.669	80
703.814	90
709.953	92
716.085	90
722.21	124
728.33	122
734.443	142
740.549	176
746.65	172
752.743	218
758.831	240
764.912	226
770.986	204
777.055	190
783.117	236
789.173	314
795.222	338
801.265	290
807.302	202
813.333	158
819.357	124
825.376	116
831.387	118
837.392	136
843.392	160
849.386	136
855.372	118
861.353	124
867.328	120
873.296	116
879.258	116
885.214	116
891.164	114
897.108	112
903.046	138
908.977	140
914.903	116
920.822	102
926.735	92
932.643	92
938.543	96
944.439	108
950.328	98
956.21	100
962.088	114
967.958	128
973.824	128
979.682	180
985.534	274
991.382	748
997.222	1172
1003.06	2878
1008.89	430
1014.71	186
1020.53	224
1026.34	502
1032.14	910
1037.94	418
1043.73	204
1049.52	158
1055.3	152
1061.08	160
1066.85	156
1072.61	180
1078.37	168
1084.12	180
1089.87	158
1095.61	156
1101.34	172
1107.07	138
1112.8	126
1118.51	116
1124.22	102
1129.93	98
1135.63	104
1141.32	126
1147.01	154
1152.69	332
1158.37	342
1164.04	224
1169.71	220
1175.37	296
1181.02	502
1186.67	438
1192.31	470
1197.95	490
1203.58	436
1209.2	312
1214.82	216
1220.44	206
1226.05	204
1231.65	172
1237.25	178
1242.84	178
1248.42	166
1254	158
1259.58	154
1265.15	164
1270.71	164
1276.27	164
1281.82	174
1287.37	182
1292.91	188
1298.45	196
1303.98	214
1309.5	220
1315.02	228
1320.53	268
1326.04	288
1331.54	296
1337.04	262
1342.53	250
1348.02	264
1353.5	256
1358.98	260
1364.45	274
1369.91	276
1375.37	242
1380.82	240
1386.27	236
1391.71	238
1397.15	210
1402.58	224
1408.01	222
1413.43	208
1418.85	206
1424.26	224
1429.66	224
1435.06	224
1440.46	268
1445.85	308
1451.23	334
1456.61	260
1461.98	206
1467.35	186
1472.71	182
1478.07	172
1483.42	174
1488.77	172
1494.11	200
1499.45	170
1504.78	164
1510.11	164
1515.43	154
1520.74	156
1526.05	166
1531.36	156
1536.66	160
1541.95	158
1547.24	154
1552.52	138
1557.8	152
1563.08	160
1568.35	158
1573.61	184
1578.87	282
1584.12	392
1589.37	252
1594.61	312
1599.85	600
1605.08	554
1610.31	266
1615.53	198
1620.75	174
1625.96	154
1631.17	144
1636.37	156
1641.57	134
1646.76	140
1651.95	148
1657.13	124
1662.31	114
1667.48	122
1672.65	124
1677.81	122
1682.97	122
1688.12	118
1693.27	124
1698.41	120
1702.26	122

File: ps-ppo-6jan25-1,0000-map3_Y06_X01.txt
204.377	824
211.048	872
217.712	906
224.369	878
231.019	728
237.661	560
244.297	384
250.924	298
257.546	280
264.16	258
270.766	240
277.365	226
283.958	212
290.543	182
297.121	170
303.693	162
310.256	174
316.813	176
323.362	166
329.905	162
336.441	166
342.969	160
349.491	142
356.006	142
362.513	140
369.014	148
375.508	168
381.994	158
388.473	180
394.947	190
401.412	230
407.871	224
414.323	202
420.768	164
427.206	146
433.637	144
440.062	136
446.479	132
452.89	106
459.293	106
465.691	98
472.081	100
478.463	104
484.84	96
491.21	92
497.573	106
503.929	104
510.279	96
516.621	114
522.957	110
529.287	126
535.609	140
541.925	156
548.234	138
554.536	130
560.832	128
567.12	122
573.403	134
579.679	110
585.948	116
592.211	106
598.466	110
604.715	128
610.958	144
617.194	322
623.424	444
629.647	146
635.864	112
642.074	88
648.276	84
654.473	74
660.664	72
666.847	74
673.025	70
679.195	74
685.36	78
691.517	84
697.669	88
703.814	100
709.953	92
716.085	102
722.21	140
728.33	130
734.443	132
740.549	170
746.65	190
752.743	196
758.831	228
764.912	230
770.986	198
777.055	192
783.117	252
789.173	306
795.222	322
801.265	286
807.302	188
813.333	166
819.357	132
825.376	118
831.387	118
837.392	144
843.392	160
849.386	132
855.372	128
861.353	126
867.328	132
873.296	130
879.258	112
885.214	116
891.164	100
897.108	118
903.046	146
908.977	136
914.903	118
920.822	102
926.735	104
932.643	94
938.543	100
944.439	102
950.328	96
956.21	100
962.088	126
967.958	124
973.824	122
979.682	190
985.534	274
991.382	732
997.222	1204
1003.06	2860
1008.89	434
1014.71	184
1020.53	218
1026.34	500
1032.14	862
1037.94	390
1043.73	208
1049.52	166
1055.3	150
1061.08	166
1066.85	168
1072.61	174
1078.37	170
1084.12	164
1089.87	166
1095.61	164
1101.34	180
1107.07	142
1112.8	128
1118.51	116
1124.22	104
1129.93	110
1135.63	114
1141.32	126
1147.01	160
1152.69	346
1158.37	336
1164.04	194
1169.71	224
1175.37	302
1181.02	508
1186.67	434
1192.31	472
1197.95	488
1203.58	446
1209.2	326
1214.82	236
1220.44	208
1226.05	198
1231.65	184
1237.25	160
1242.84	170
1248.42	164
1254	146
1259.58	156
1265.15	170
1270.71	166
1276.27	176
1281.82	172
1287.37	186
1292.91	196
1298.45	202
1303.98	208
1309.5	222
1315.02	238
1320.53	264
1326.04	290
1331.54	290
1337.04	286
1342.53	266
1348.02	270
1353.5	262
1358.98	254
1364.45	268
1369.91	266
1375.37	274
1380.82	242
1386.27	240
1391.71	242
1397.15	234
1402.58	224
1408.01	222
1413.43	216
1418.85	226
1424.26	218
1429.66	220
1435.06	224
1440.46	282
1445.85	318
1451.23	320
1456.61	272
1461.98	218
1467.35	184
1472.71	184
1478.07	172
1483.42	160
1488.77	188
1494.11	184
1499.45	184
1504.78	146
1510.11	160
1515.43	156
1520.74	160
1526.05	148
1531.36	140
1536.66	162
1541.95	166
1547.24	158
1552.52	150
1557.8	162
1563.08	166
1568.35	164
1573.61	194
1578.87	256
1584.12	386
1589.37	240
1594.61	306
1599.85	636
1605.08	560
1610.31	266
1615.53	190
1620.75	160
1625.96	154
1631.17	146
1636.37	142
1641.57	146
1646.76	144
1651.95	146
1657.13	136
1662.31	126
1667.48	122
1672.65	126
1677.81	132
1682.97	124
1688.12	120
1693.27	132
1698.41	118
1702.26	110