Folder: NRC_SU25_Spectral_Classification/Mixture_Classification/Jesse_Dataset_v2/Pure Raman/Polystyrene/785nm (part 9)

File: ps-ppo-6jan25-1,0000-map3_Y10_X01.txt
204.377	832
211.048	876
217.712	880
224.369	896
231.019	710
237.661	536
244.297	384
250.924	308
257.546	264
264.16	270
270.766	264
277.365	226
283.958	218
290.543	190
297.121	186
303.693	174
310.256	164
316.813	168
323.362	160
329.905	172
336.441	164
342.969	162
349.491	154
356.006	144
362.513	156
369.014	156
375.508	154
381.994	174
388.473	184
394.947	192
401.412	208
407.871	232
414.323	194
420.768	172
427.206	144
433.637	150
440.062	144
446.479	126
452.89	108
459.293	114
465.691	114
472.081	106
478.463	104
484.84	104
491.21	104
497.573	102
503.929	112
510.279	110
516.621	108
522.957	116
529.287	116
535.609	138
541.925	132
548.234	144
554.536	136
560.832	132
567.12	130
573.403	136
579.679	130
585.948	116
592.211	98
598.466	112
604.715	128
610.958	146
617.194	314
623.424	446
629.647	134
635.864	108
642.074	90
648.276	90
654.473	78
660.664	78
666.847	78
673.025	76
679.195	74
685.36	76
691.517	74
697.669	80
703.814	102
709.953	94
716.085	92
722.21	148
728.33	132
734.443	138
740.549	184
746.65	164
752.743	212
758.831	234
764.912	220
770.986	202
777.055	200
783.117	232
789.173	316
795.222	332
801.265	270
807.302	192
813.333	158
819.357	128
825.376	102
831.387	118
837.392	140
843.392	164
849.386	138
855.372	128
861.353	104
867.328	122
873.296	120
879.258	116
885.214	130
891.164	116
897.108	118
903.046	148
908.977	138
914.903	112
920.822	104
926.735	92
932.643	98
938.543	96
944.439	94
950.328	102
956.21	108
962.088	112
967.958	128
973.824	134
979.682	178
985.534	268
991.382	740
997.222	1256
1003.06	2858
1008.89	438
1014.71	190
1020.53	222
1026.34	498
1032.14	928
1037.94	414
1043.73	200
1049.52	170
1055.3	158
1061.08	158
1066.85	180
1072.61	176
1078.37	156
1084.12	176
1089.87	158
1095.61	164
1101.34	166
1107.07	154
1112.8	122
1118.51	126
1124.22	100
1129.93	102
1135.63	120
1141.32	134
1147.01	178
1152.69	358
1158.37	342
1164.04	228
1169.71	204
1175.37	292
1181.02	540
1186.67	430
1192.31	458
1197.95	506
1203.58	438
1209.2	314
1214.82	236
1220.44	198
1226.05	190
1231.65	174
1237.25	168
1242.84	176
1248.42	176
1254	176
1259.58	172
1265.15	170
1270.71	174
1276.27	162
1281.82	178
1287.37	178
1292.91	200
1298.45	200
1303.98	210
1309.5	230
1315.02	232
1320.53	270
1326.04	276
1331.54	294
1337.04	284
1342.53	284
1348.02	248
1353.5	256
1358.98	274
1364.45	266
1369.91	276
1375.37	272
1380.82	276
1386.27	240
1391.71	224
1397.15	224
1402.58	232
1408.01	226
1413.43	220
1418.85	202
1424.26	228
1429.66	220
1435.06	244
1440.46	294
1445.85	326
1451.23	318
1456.61	268
1461.98	202
1467.35	188
1472.71	178
1478.07	186
1483.42	168
1488.77	176
1494.11	184
1499.45	188
1504.78	172
1510.11	162
1515.43	172
1520.74	166
1526.05	166
1531.36	172
1536.66	154
1541.95	150
1547.24	150
1552.52	160
1557.8	170
1563.08	156
1568.35	174
1573.61	210
1578.87	270
1584.12	398
1589.37	238
1594.61	312
1599.85	608
1605.08	530
1610.31	258
1615.53	184
1620.75	188
1625.96	154
1631.17	144
1636.37	148
1641.57	154
1646.76	154
1651.95	150
1657.13	144
1662.31	116
1667.48	128
1672.65	120
1677.81	124
1682.97	130
1688.12	134
1693.27	110
1698.41	122
1702.26	126

File: ps-ppo-6jan25-1,0000-map3_Y10_X03.txt
204.377	834
211.048	890
217.712	916
224.369	870
231.019	706
237.661	554
244.297	382
250.924	320
257.546	272
264.16	266
270.766	264
277.365	220
283.958	190
290.543	188
297.121	176
303.693	166
310.256	172
316.813	172
323.362	156
329.905	172
336.441	160
342.969	170
349.491	152
356.006	150
362.513	152
369.014	146
375.508	156
381.994	158
388.473	188
394.947	196
401.412	202
407.871	226
414.323	188
420.768	172
427.206	152
433.637	152
440.062	128
446.479	134
452.89	112
459.293	104
465.691	112
472.081	100
478.463	98
484.84	100
491.21	96
497.573	100
503.929	114
510.279	106
516.621	98
522.957	116
529.287	124
535.609	144
541.925	164
548.234	136
554.536	140
560.832	136
567.12	130
573.403	132
579.679	122
585.948	108
592.211	110
598.466	116
604.715	144
610.958	150
617.194	318
623.424	446
629.647	140
635.864	102
642.074	88
648.276	86
654.473	84
660.664	76
666.847	72
673.025	74
679.195	78
685.36	72
691.517	78
697.669	82
703.814	94
709.953	92
716.085	96
722.21	142
728.33	134
734.443	124
740.549	182
746.65	174
752.743	202
758.831	242
764.912	214
770.986	202
777.055	200
783.117	234
789.173	310
795.222	340
801.265	280
807.302	184
813.333	160
819.357	124
825.376	112
831.387	108
837.392	144
843.392	154
849.386	140
855.372	128
861.353	124
867.328	116
873.296	120
879.258	116
885.214	102
891.164	120
897.108	120
903.046	136
908.977	150
914.903	116
920.822	100
926.735	88
932.643	102
938.543	108
944.439	96
950.328	100
956.21	106
962.088	118
967.958	128
973.824	138
979.682	192
985.534	282
991.382	786
997.222	1224
1003.06	2914
1008.89	440
1014.71	192
1020.53	224
1026.34	500
1032.14	872
1037.94	398
1043.73	204
1049.52	158
1055.3	152
1061.08	152
1066.85	172
1072.61	168
1078.37	164
1084.12	184
1089.87	162
1095.61	178
1101.34	164
1107.07	146
1112.8	134
1118.51	124
1124.22	102
1129.93	116
1135.63	114
1141.32	128
1147.01	164
1152.69	342
1158.37	346
1164.04	214
1169.71	210
1175.37	298
1181.02	512
1186.67	428
1192.31	468
1197.95	498
1203.58	442
1209.2	306
1214.82	230
1220.44	206
1226.05	182
1231.65	186
1237.25	174
1242.84	162
1248.42	170
1254	164
1259.58	170
1265.15	180
1270.71	166
1276.27	174
1281.82	176
1287.37	166
1292.91	196
1298.45	210
1303.98	220
1309.5	216
1315.02	232
1320.53	278
1326.04	288
1331.54	278
1337.04	278
1342.53	266
1348.02	258
1353.5	270
1358.98	250
1364.45	284
1369.91	270
1375.37	284
1380.82	264
1386.27	246
1391.71	234
1397.15	230
1402.58	222
1408.01	236
1413.43	228
1418.85	226
1424.26	222
1429.66	210
1435.06	260
1440.46	294
1445.85	326
1451.23	338
1456.61	254
1461.98	212
1467.35	192
1472.71	182
1478.07	192
1483.42	180
1488.77	192
1494.11	192
1499.45	174
1504.78	174
1510.11	156
1515.43	168
1520.74	156
1526.05	170
1531.36	166
1536.66	168
1541.95	164
1547.24	166
1552.52	158
1557.8	164
1563.08	166
1568.35	176
1573.61	180
1578.87	262
1584.12	406
1589.37	250
1594.61	312
1599.85	606
1605.08	534
1610.31	268
1615.53	210
1620.75	176
1625.96	146
1631.17	156
1636.37	146
1641.57	144
1646.76	160
1651.95	148
1657.13	126
1662.31	126
1667.48	128
1672.65	132
1677.81	134
1682.97	132
1688.12	122
1693.27	126
1698.41	132
1702.26	124

File: ps-ppo-6jan25-1,0000-map3_Y10_X04.txt
204.377	844
211.048	870
217.712	918
224.369	876
231.019	736
237.661	538
244.297	364
250.924	298
257.546	276
264.16	274
270.766	248
277.365	234
283.958	210
290.543	202
297.121	180
303.693	170
310.256	166
316.813	174
323.362	164
329.905	168
336.441	168
342.969	166
349.491	156
356.006	154
362.513	158
369.014	150
375.508	148
381.994	166
388.473	184
394.947	172
401.412	208
407.871	224
414.323	206
420.768	178
427.206	152
433.637	148
440.062	134
446.479	134
452.89	122
459.293	108
465.691	106
472.081	108
478.463	100
484.84	96
491.21	96
497.573	102
503.929	108
510.279	102
516.621	106
522.957	112
529.287	120
535.609	146
541.925	154
548.234	152
554.536	138
560.832	134
567.12	138
573.403	140
579.679	118
585.948	104
592.211	104
598.466	118
604.715	126
610.958	142
617.194	316
623.424	466
629.647	140
635.864	116
642.074	86
648.276	84
654.473	74
660.664	76
666.847	78
673.025	78
679.195	80
685.36	68
691.517	76
697.669	92
703.814	96
709.953	98
716.085	96
722.21	134
728.33	128
734.443	134
740.549	182
746.65	190
752.743	222
758.831	236
764.912	220
770.986	194
777.055	204
783.117	232
789.173	308
795.222	366
801.265	280
807.302	186
813.333	154
819.357	132
825.376	108
831.387	116
837.392	144
843.392	162
849.386	138
855.372	130
861.353	114
867.328	118
873.296	120
879.258	106
885.214	112
891.164	112
897.108	110
903.046	144
908.977	136
914.903	120
920.822	98
926.735	96
932.643	92
938.543	94
944.439	92
950.328	96
956.21	98
962.088	126
967.958	134
973.824	122
979.682	186
985.534	272
991.382	782
997.222	1230
1003.06	2870
1008.89	438
1014.71	194
1020.53	218
1026.34	484
1032.14	908
1037.94	408
1043.73	208
1049.52	156
1055.3	152
1061.08	158
1066.85	174
1072.61	174
1078.37	162
1084.12	170
1089.87	162
1095.61	172
1101.34	158
1107.07	138
1112.8	126
1118.51	116
1124.22	104
1129.93	104
1135.63	112
1141.32	144
1147.01	168
1152.69	378
1158.37	350
1164.04	200
1169.71	214
1175.37	308
1181.02	506
1186.67	424
1192.31	492
1197.95	506
1203.58	428
1209.2	324
1214.82	224
1220.44	214
1226.05	210
1231.65	192
1237.25	172
1242.84	162
1248.42	168
1254	158
1259.58	166
1265.15	180
1270.71	168
1276.27	170
1281.82	168
1287.37	196
1292.91	208
1298.45	220
1303.98	216
1309.5	222
1315.02	256
1320.53	274
1326.04	298
1331.54	296
1337.04	292
1342.53	272
1348.02	252
1353.5	260
1358.98	270
1364.45	274
1369.91	276
1375.37	294
1380.82	262
1386.27	252
1391.71	244
1397.15	238
1402.58	228
1408.01	236
1413.43	224
1418.85	228
1424.26	214
1429.66	228
1435.06	242
1440.46	280
1445.85	318
1451.23	318
1456.61	274
1461.98	216
1467.35	208
1472.71	188
1478.07	184
1483.42	180
1488.77	176
1494.11	202
1499.45	174
1504.78	158
1510.11	162
1515.43	164
1520.74	152
1526.05	164
1531.36	170
1536.66	166
1541.95	152
1547.24	156
1552.52	172
1557.8	156
1563.08	176
1568.35	182
1573.61	202
1578.87	270
1584.12	426
1589.37	238
1594.61	312
1599.85	606
1605.08	540
1610.31	272
1615.53	202
1620.75	162
1625.96	170
1631.17	158
1636.37	140
1641.57	144
1646.76	158
1651.95	150
1657.13	150
1662.31	126
1667.48	138
1672.65	132
1677.81	124
1682.97	122
1688.12	134
1693.27	132
1698.41	126
1702.26	122

File: ps-ppo-6jan25-1,0000-map3_Y10_X05.txt
204.377	816
211.048	894
217.712	928
224.369	882
231.019	742
237.661	568
244.297	390
250.924	310
257.546	264
264.16	270
270.766	254
277.365	246
283.958	216
290.543	186
297.121	170
303.693	164
310.256	178
316.813	182
323.362	174
329.905	166
336.441	172
342.969	164
349.491	152
356.006	150
362.513	164
369.014	152
375.508	168
381.994	170
388.473	182
394.947	198
401.412	230
407.871	246
414.323	174
420.768	172
427.206	164
433.637	144
440.062	142
446.479	132
452.89	120
459.293	112
465.691	102
472.081	114
478.463	114
484.84	98
491.21	100
497.573	104
503.929	120
510.279	112
516.621	108
522.957	112
529.287	124
535.609	154
541.925	158
548.234	146
554.536	142
560.832	122
567.12	138
573.403	150
579.679	130
585.948	114
592.211	108
598.466	110
604.715	134
610.958	150
617.194	344
623.424	460
629.647	150
635.864	110
642.074	92
648.276	88
654.473	84
660.664	74
666.847	70
673.025	70
679.195	82
685.36	78
691.517	82
697.669	98
703.814	102
709.953	104
716.085	96
722.21	142
728.33	128
734.443	150
740.549	186
746.65	184
752.743	220
758.831	230
764.912	210
770.986	204
777.055	188
783.117	244
789.173	314
795.222	344
801.265	284
807.302	196
813.333	164
819.357	132
825.376	114
831.387	116
837.392	146
843.392	166
849.386	146
855.372	126
861.353	120
867.328	134
873.296	130
879.258	114
885.214	114
891.164	118
897.108	122
903.046	132
908.977	140
914.903	122
920.822	96
926.735	106
932.643	102
938.543	106
944.439	100
950.328	112
956.21	102
962.088	120
967.958	130
973.824	136
979.682	198
985.534	292
991.382	802
997.222	1242
1003.06	2840
1008.89	436
1014.71	208
1020.53	234
1026.34	486
1032.14	916
1037.94	410
1043.73	210
1049.52	160
1055.3	160
1061.08	170
1066.85	182
1072.61	178
1078.37	168
1084.12	162
1089.87	172
1095.61	160
1101.34	162
1107.07	146
1112.8	130
1118.51	130
1124.22	112
1129.93	112
1135.63	108
1141.32	132
1147.01	178
1152.69	362
1158.37	326
1164.04	208
1169.71	214
1175.37	318
1181.02	524
1186.67	434
1192.31	472
1197.95	512
1203.58	430
1209.2	318
1214.82	228
1220.44	206
1226.05	192
1231.65	186
1237.25	172
1242.84	172
1248.42	172
1254	180
1259.58	170
1265.15	168
1270.71	180
1276.27	168
1281.82	176
1287.37	190
1292.91	194
1298.45	218
1303.98	230
1309.5	224
1315.02	250
1320.53	274
1326.04	306
1331.54	292
1337.04	304
1342.53	276
1348.02	272
1353.5	268
1358.98	274
1364.45	286
1369.91	286
1375.37	282
1380.82	262
1386.27	244
1391.71	242
1397.15	238
1402.58	212
1408.01	230
1413.43	228
1418.85	216
1424.26	230
1429.66	218
1435.06	238
1440.46	286
1445.85	330
1451.23	312
1456.61	262
1461.98	208
1467.35	188
1472.71	202
1478.07	184
1483.42	188
1488.77	186
1494.11	180
1499.45	168
1504.78	160
1510.11	170
1515.43	178
1520.74	172
1526.05	164
1531.36	166
1536.66	172
1541.95	164
1547.24	160
1552.52	174
1557.8	168
1563.08	160
1568.35	188
1573.61	202
1578.87	264
1584.12	410
1589.37	244
1594.61	318
1599.85	626
1605.08	580
1610.31	276
1615.53	188
1620.75	178
1625.96	170
1631.17	158
1636.37	164
1641.57	156
1646.76	160
1651.95	152
1657.13	150
1662.31	126
1667.48	136
1672.65	136
1677.81	120
1682.97	136
1688.12	128
1693.27	124
1698.41	120
1702.26	130

File: ps-ppo-6jan25-1,0000-map3_Y10_X08.txt
204.377	824
211.048	910
217.712	898
224.369	884
231.019	718
237.661	544
244.297	404
250.924	300
257.546	286
264.16	270
270.766	256
277.365	232
283.958	218
290.543	182
297.121	184
303.693	172
310.256	182
316.813	170
323.362	186
329.905	180
336.441	180
342.969	162
349.491	176
356.006	148
362.513	144
369.014	170
375.508	174
381.994	188
388.473	198
394.947	192
401.412	226
407.871	256
414.323	194
420.768	178
427.206	164
433.637	132
440.062	150
446.479	140
452.89	120
459.293	128
465.691	106
472.081	106
478.463	112
484.84	108
491.21	98
497.573	98
503.929	130
510.279	104
516.621	122
522.957	126
529.287	140
535.609	148
541.925	148
548.234	156
554.536	144
560.832	148
567.12	144
573.403	142
579.679	122
585.948	118
592.211	102
598.466	126
604.715	130
610.958	146
617.194	328
623.424	446
629.647	144
635.864	106
642.074	94
648.276	80
654.473	84
660.664	88
666.847	92
673.025	74
679.195	78
685.36	80
691.517	82
697.669	92
703.814	98
709.953	96
716.085	94
722.21	138
728.33	128
734.443	140
740.549	174
746.65	190
752.743	220
758.831	236
764.912	230
770.986	202
777.055	196
783.117	242
789.173	318
795.222	342
801.265	262
807.302	212
813.333	160
819.357	132
825.376	112
831.387	112
837.392	146
843.392	164
849.386	128
855.372	136
861.353	130
867.328	128
873.296	120
879.258	112
885.214	118
891.164	116
897.108	116
903.046	148
908.977	134
914.903	118
920.822	100
926.735	104
932.643	94
938.543	100
944.439	90
950.328	100
956.21	102
962.088	106
967.958	140
973.824	140
979.682	174
985.534	284
991.382	808
997.222	1268
1003.06	2866
1008.89	462
1014.71	188
1020.53	222
1026.34	522
1032.14	910
1037.94	404
1043.73	190
1049.52	160
1055.3	160
1061.08	166
1066.85	176
1072.61	180
1078.37	168
1084.12	170
1089.87	182
1095.61	170
1101.34	158
1107.07	150
1112.8	140
1118.51	124
1124.22	104
1129.93	112
1135.63	114
1141.32	130
1147.01	174
1152.69	364
1158.37	342
1164.04	212
1169.71	210
1175.37	318
1181.02	522
1186.67	442
1192.31	470
1197.95	492
1203.58	456
1209.2	326
1214.82	226
1220.44	216
1226.05	192
1231.65	184
1237.25	180
1242.84	172
1248.42	182
1254	168
1259.58	176
1265.15	178
1270.71	180
1276.27	186
1281.82	166
1287.37	176
1292.91	208
1298.45	220
1303.98	226
1309.5	220
1315.02	244
1320.53	288
1326.04	290
1331.54	296
1337.04	294
1342.53	290
1348.02	284
1353.5	272
1358.98	286
1364.45	278
1369.91	278
1375.37	294
1380.82	272
1386.27	252
1391.71	254
1397.15	242
1402.58	240
1408.01	246
1413.43	242
1418.85	232
1424.26	236
1429.66	234
1435.06	250
1440.46	288
1445.85	332
1451.23	344
1456.61	280
1461.98	224
1467.35	210
1472.71	202
1478.07	196
1483.42	196
1488.77	200
1494.11	182
1499.45	186
1504.78	172
1510.11	178
1515.43	184
1520.74	162
1526.05	176
1531.36	174
1536.66	162
1541.95	168
1547.24	164
1552.52	170
1557.8	178
1563.08	180
1568.35	196
1573.61	198
1578.87	286
1584.12	426
1589.37	266
1594.61	308
1599.85	638
1605.08	582
1610.31	276
1615.53	218
1620.75	180
1625.96	178
1631.17	164
1636.37	152
1641.57	164
1646.76	158
1651.95	150
1657.13	144
1662.31	140
1667.48	132
1672.65	134
1677.81	130
1682.97	148
1688.12	136
1693.27	122
1698.41	132
1702.26	122

File: ps-ppo-6jan25-1,0000-map3_Y10_X10.txt
204.377	822
211.048	902
217.712	928
224.369	890
231.019	718
237.661	532
244.297	374
250.924	298
257.546	266
264.16	264
270.766	268
277.365	240
283.958	204
290.543	190
297.121	182
303.693	174
310.256	170
316.813	172
323.362	172
329.905	170
336.441	166
342.969	172
349.491	152
356.006	150
362.513	144
369.014	154
375.508	164
381.994	176
388.473	194
394.947	204
401.412	212
407.871	224
414.323	196
420.768	174
427.206	154
433.637	138
440.062	142
446.479	138
452.89	124
459.293	114
465.691	114
472.081	108
478.463	108
484.84	102
491.21	94
497.573	110
503.929	106
510.279	114
516.621	110
522.957	116
529.287	126
535.609	144
541.925	150
548.234	144
554.536	134
560.832	140
567.12	136
573.403	142
579.679	112
585.948	118
592.211	118
598.466	122
604.715	138
610.958	136
617.194	328
623.424	452
629.647	144
635.864	106
642.074	84
648.276	86
654.473	92
660.664	84
666.847	82
673.025	84
679.195	78
685.36	78
691.517	88
697.669	92
703.814	100
709.953	94
716.085	104
722.21	138
728.33	128
734.443	130
740.549	172
746.65	180
752.743	220
758.831	238
764.912	224
770.986	196
777.055	200
783.117	246
789.173	308
795.222	358
801.265	286
807.302	204
813.333	164
819.357	126
825.376	104
831.387	120
837.392	146
843.392	148
849.386	136
855.372	116
861.353	134
867.328	120
873.296	120
879.258	110
885.214	112
891.164	108
897.108	120
903.046	138
908.977	140
914.903	126
920.822	104
926.735	92
932.643	90
938.543	106
944.439	104
950.328	96
956.21	106
962.088	126
967.958	140
973.824	140
979.682	188
985.534	284
991.382	792
997.222	1278
1003.06	2802
1008.89	438
1014.71	212
1020.53	218
1026.34	520
1032.14	906
1037.94	398
1043.73	208
1049.52	166
1055.3	152
1061.08	156
1066.85	176
1072.61	172
1078.37	180
1084.12	174
1089.87	168
1095.61	176
1101.34	174
1107.07	138
1112.8	134
1118.51	114
1124.22	108
1129.93	114
1135.63	122
1141.32	134
1147.01	174
1152.69	360
1158.37	334
1164.04	216
1169.71	214
1175.37	308
1181.02	508
1186.67	448
1192.31	474
1197.95	498
1203.58	440
1209.2	326
1214.82	238
1220.44	212
1226.05	202
1231.65	194
1237.25	178
1242.84	162
1248.42	184
1254	180
1259.58	178
1265.15	168
1270.71	172
1276.27	190
1281.82	172
1287.37	190
1292.91	190
1298.45	216
1303.98	222
1309.5	260
1315.02	248
1320.53	266
1326.04	308
1331.54	306
1337.04	296
1342.53	288
1348.02	282
1353.5	288
1358.98	268
1364.45	306
1369.91	290
1375.37	304
1380.82	266
1386.27	258
1391.71	252
1397.15	244
1402.58	244
1408.01	224
1413.43	228
1418.85	234
1424.26	220
1429.66	242
1435.06	262
1440.46	298
1445.85	352
1451.23	344
1456.61	296
1461.98	212
1467.35	208
1472.71	202
1478.07	198
1483.42	194
1488.77	196
1494.11	200
1499.45	176
1504.78	188
1510.11	178
1515.43	174
1520.74	178
1526.05	192
1531.36	160
1536.66	176
1541.95	178
1547.24	180
1552.52	170
1557.8	176
1563.08	166
1568.35	190
1573.61	214
1578.87	278
1584.12	384
1589.37	268
1594.61	320
1599.85	628
1605.08	572
1610.31	286
1615.53	208
1620.75	184
1625.96	172
1631.17	164
1636.37	160
1641.57	164
1646.76	148
1651.95	150
1657.13	130
1662.31	134
1667.48	138
1672.65	130
1677.81	142
1682.97	134
1688.12	132
1693.27	126
1698.41	128
1702.26	126