Folder: NRC_SU25_Spectral_Classification/Mixture_Classification/Jesse_Dataset_v2/Pure Raman/Polystyrene/785nm (part 4)

File: ps-ppo-6jan25-1,0000-map3_Y03_X06.txt
204.377	852
211.048	918
217.712	910
224.369	874
231.019	746
237.661	544
244.297	394
250.924	296
257.546	278
264.16	274
270.766	244
277.365	222
283.958	216
290.543	186
297.121	160
303.693	174
310.256	164
316.813	168
323.362	170
329.905	160
336.441	166
342.969	152
349.491	152
356.006	148
362.513	146
369.014	150
375.508	156
381.994	174
388.473	174
394.947	176
401.412	212
407.871	222
414.323	192
420.768	162
427.206	154
433.637	142
440.062	132
446.479	132
452.89	122
459.293	106
465.691	108
472.081	102
478.463	100
484.84	102
491.21	84
497.573	104
503.929	108
510.279	104
516.621	106
522.957	114
529.287	112
535.609	128
541.925	152
548.234	140
554.536	126
560.832	134
567.12	128
573.403	124
579.679	118
585.948	116
592.211	110
598.466	108
604.715	126
610.958	142
617.194	336
623.424	474
629.647	132
635.864	112
642.074	88
648.276	74
654.473	74
660.664	68
666.847	72
673.025	76
679.195	68
685.36	76
691.517	74
697.669	96
703.814	92
709.953	92
716.085	92
722.21	120
728.33	120
734.443	130
740.549	180
746.65	188
752.743	204
758.831	220
764.912	224
770.986	194
777.055	202
783.117	228
789.173	304
795.222	342
801.265	274
807.302	196
813.333	156
819.357	130
825.376	104
831.387	118
837.392	152
843.392	168
849.386	144
855.372	130
861.353	122
867.328	112
873.296	116
879.258	112
885.214	104
891.164	110
897.108	124
903.046	142
908.977	126
914.903	114
920.822	104
926.735	98
932.643	100
938.543	96
944.439	104
950.328	102
956.21	98
962.088	122
967.958	124
973.824	132
979.682	172
985.534	288
991.382	778
997.222	1224
1003.06	2872
1008.89	460
1014.71	194
1020.53	198
1026.34	488
1032.14	892
1037.94	386
1043.73	192
1049.52	154
1055.3	160
1061.08	150
1066.85	164
1072.61	174
1078.37	154
1084.12	160
1089.87	164
1095.61	174
1101.34	156
1107.07	146
1112.8	136
1118.51	112
1124.22	120
1129.93	102
1135.63	108
1141.32	122
1147.01	166
1152.69	342
1158.37	316
1164.04	224
1169.71	202
1175.37	300
1181.02	522
1186.67	424
1192.31	480
1197.95	494
1203.58	466
1209.2	316
1214.82	238
1220.44	196
1226.05	192
1231.65	176
1237.25	166
1242.84	174
1248.42	168
1254	166
1259.58	164
1265.15	178
1270.71	170
1276.27	180
1281.82	176
1287.37	174
1292.91	188
1298.45	218
1303.98	202
1309.5	238
1315.02	250
1320.53	276
1326.04	294
1331.54	308
1337.04	290
1342.53	270
1348.02	270
1353.5	270
1358.98	290
1364.45	260
1369.91	290
1375.37	272
1380.82	256
1386.27	248
1391.71	234
1397.15	240
1402.58	252
1408.01	226
1413.43	224
1418.85	224
1424.26	226
1429.66	220
1435.06	234
1440.46	276
1445.85	324
1451.23	336
1456.61	262
1461.98	204
1467.35	194
1472.71	192
1478.07	172
1483.42	176
1488.77	188
1494.11	186
1499.45	158
1504.78	172
1510.11	174
1515.43	166
1520.74	160
1526.05	164
1531.36	164
1536.66	152
1541.95	148
1547.24	146
1552.52	170
1557.8	172
1563.08	144
1568.35	162
1573.61	208
1578.87	280
1584.12	408
1589.37	252
1594.61	322
1599.85	618
1605.08	544
1610.31	298
1615.53	186
1620.75	170
1625.96	162
1631.17	146
1636.37	142
1641.57	146
1646.76	156
1651.95	132
1657.13	136
1662.31	144
1667.48	120
1672.65	118
1677.81	120
1682.97	120
1688.12	112
1693.27	130
1698.41	116
1702.26	114

File: ps-ppo-6jan25-1,0000-map3_Y03_X07.txt
204.377	846
211.048	890
217.712	936
224.369	868
231.019	732
237.661	540
244.297	366
250.924	306
257.546	258
264.16	256
270.766	238
277.365	234
283.958	206
290.543	198
297.121	180
303.693	162
310.256	166
316.813	144
323.362	178
329.905	160
336.441	158
342.969	150
349.491	154
356.006	142
362.513	148
369.014	144
375.508	164
381.994	168
388.473	178
394.947	188
401.412	206
407.871	246
414.323	188
420.768	166
427.206	154
433.637	140
440.062	140
446.479	126
452.89	118
459.293	110
465.691	100
472.081	106
478.463	92
484.84	96
491.21	98
497.573	106
503.929	108
510.279	96
516.621	112
522.957	110
529.287	120
535.609	136
541.925	148
548.234	138
554.536	140
560.832	136
567.12	134
573.403	142
579.679	118
585.948	114
592.211	106
598.466	106
604.715	136
610.958	156
617.194	302
623.424	482
629.647	150
635.864	108
642.074	80
648.276	80
654.473	66
660.664	74
666.847	70
673.025	72
679.195	78
685.36	70
691.517	70
697.669	90
703.814	100
709.953	90
716.085	90
722.21	124
728.33	124
734.443	134
740.549	184
746.65	184
752.743	204
758.831	224
764.912	230
770.986	204
777.055	202
783.117	234
789.173	316
795.222	344
801.265	294
807.302	206
813.333	154
819.357	128
825.376	106
831.387	116
837.392	140
843.392	156
849.386	132
855.372	130
861.353	122
867.328	120
873.296	124
879.258	116
885.214	110
891.164	108
897.108	114
903.046	130
908.977	132
914.903	118
920.822	106
926.735	100
932.643	96
938.543	98
944.439	94
950.328	100
956.21	92
962.088	114
967.958	128
973.824	132
979.682	166
985.534	266
991.382	786
997.222	1220
1003.06	2914
1008.89	450
1014.71	200
1020.53	214
1026.34	502
1032.14	906
1037.94	378
1043.73	198
1049.52	170
1055.3	146
1061.08	152
1066.85	164
1072.61	172
1078.37	170
1084.12	160
1089.87	168
1095.61	174
1101.34	176
1107.07	136
1112.8	120
1118.51	122
1124.22	108
1129.93	104
1135.63	108
1141.32	132
1147.01	176
1152.69	366
1158.37	344
1164.04	218
1169.71	208
1175.37	278
1181.02	522
1186.67	428
1192.31	486
1197.95	470
1203.58	432
1209.2	302
1214.82	232
1220.44	190
1226.05	190
1231.65	172
1237.25	160
1242.84	170
1248.42	174
1254	160
1259.58	164
1265.15	160
1270.71	168
1276.27	188
1281.82	180
1287.37	184
1292.91	198
1298.45	200
1303.98	214
1309.5	224
1315.02	240
1320.53	264
1326.04	306
1331.54	306
1337.04	284
1342.53	268
1348.02	262
1353.5	254
1358.98	282
1364.45	276
1369.91	286
1375.37	288
1380.82	276
1386.27	240
1391.71	238
1397.15	238
1402.58	244
1408.01	228
1413.43	226
1418.85	226
1424.26	210
1429.66	230
1435.06	250
1440.46	280
1445.85	318
1451.23	342
1456.61	282
1461.98	204
1467.35	204
1472.71	200
1478.07	186
1483.42	180
1488.77	186
1494.11	198
1499.45	166
1504.78	180
1510.11	184
1515.43	164
1520.74	156
1526.05	166
1531.36	176
1536.66	166
1541.95	162
1547.24	166
1552.52	170
1557.8	152
1563.08	172
1568.35	164
1573.61	184
1578.87	272
1584.12	386
1589.37	242
1594.61	296
1599.85	606
1605.08	560
1610.31	286
1615.53	196
1620.75	172
1625.96	156
1631.17	146
1636.37	152
1641.57	150
1646.76	156
1651.95	140
1657.13	140
1662.31	130
1667.48	134
1672.65	138
1677.81	124
1682.97	128
1688.12	128
1693.27	130
1698.41	130
1702.26	124

File: ps-ppo-6jan25-1,0000-map3_Y03_X08.txt
204.377	830
211.048	896
217.712	914
224.369	864
231.019	702
237.661	548
244.297	368
250.924	292
257.546	276
264.16	254
270.766	260
277.365	220
283.958	212
290.543	192
297.121	170
303.693	168
310.256	152
316.813	166
323.362	172
329.905	166
336.441	170
342.969	164
349.491	146
356.006	148
362.513	152
369.014	148
375.508	152
381.994	162
388.473	196
394.947	194
401.412	206
407.871	222
414.323	182
420.768	160
427.206	146
433.637	134
440.062	134
446.479	122
452.89	114
459.293	114
465.691	98
472.081	106
478.463	96
484.84	94
491.21	102
497.573	96
503.929	104
510.279	112
516.621	102
522.957	100
529.287	122
535.609	138
541.925	148
548.234	142
554.536	134
560.832	130
567.12	126
573.403	140
579.679	116
585.948	108
592.211	112
598.466	110
604.715	144
610.958	152
617.194	314
623.424	464
629.647	146
635.864	106
642.074	84
648.276	80
654.473	74
660.664	80
666.847	68
673.025	80
679.195	78
685.36	76
691.517	82
697.669	88
703.814	90
709.953	92
716.085	86
722.21	138
728.33	138
734.443	136
740.549	192
746.65	186
752.743	210
758.831	236
764.912	220
770.986	198
777.055	212
783.117	252
789.173	310
795.222	346
801.265	292
807.302	200
813.333	164
819.357	130
825.376	126
831.387	114
837.392	148
843.392	152
849.386	130
855.372	126
861.353	118
867.328	134
873.296	126
879.258	112
885.214	112
891.164	120
897.108	122
903.046	154
908.977	146
914.903	126
920.822	98
926.735	94
932.643	86
938.543	98
944.439	110
950.328	114
956.21	106
962.088	126
967.958	124
973.824	134
979.682	186
985.534	280
991.382	802
997.222	1226
1003.06	2896
1008.89	450
1014.71	194
1020.53	212
1026.34	486
1032.14	926
1037.94	408
1043.73	212
1049.52	162
1055.3	152
1061.08	152
1066.85	170
1072.61	192
1078.37	160
1084.12	176
1089.87	174
1095.61	180
1101.34	164
1107.07	152
1112.8	136
1118.51	120
1124.22	122
1129.93	112
1135.63	108
1141.32	138
1147.01	174
1152.69	380
1158.37	356
1164.04	210
1169.71	220
1175.37	302
1181.02	530
1186.67	442
1192.31	476
1197.95	496
1203.58	448
1209.2	324
1214.82	240
1220.44	212
1226.05	198
1231.65	188
1237.25	184
1242.84	184
1248.42	172
1254	160
1259.58	172
1265.15	176
1270.71	178
1276.27	172
1281.82	182
1287.37	174
1292.91	192
1298.45	206
1303.98	228
1309.5	240
1315.02	244
1320.53	274
1326.04	282
1331.54	324
1337.04	292
1342.53	272
1348.02	256
1353.5	276
1358.98	266
1364.45	280
1369.91	288
1375.37	274
1380.82	264
1386.27	248
1391.71	234
1397.15	240
1402.58	228
1408.01	224
1413.43	216
1418.85	232
1424.26	208
1429.66	222
1435.06	264
1440.46	282
1445.85	340
1451.23	342
1456.61	264
1461.98	220
1467.35	196
1472.71	202
1478.07	182
1483.42	190
1488.77	184
1494.11	182
1499.45	186
1504.78	162
1510.11	168
1515.43	168
1520.74	174
1526.05	154
1531.36	164
1536.66	162
1541.95	168
1547.24	156
1552.52	168
1557.8	156
1563.08	176
1568.35	182
1573.61	200
1578.87	272
1584.12	392
1589.37	254
1594.61	332
1599.85	628
1605.08	566
1610.31	258
1615.53	204
1620.75	180
1625.96	162
1631.17	150
1636.37	158
1641.57	156
1646.76	140
1651.95	140
1657.13	138
1662.31	138
1667.48	130
1672.65	122
1677.81	132
1682.97	130
1688.12	128
1693.27	126
1698.41	118
1702.26	124

File: ps-ppo-6jan25-1,0000-map3_Y03_X09.txt
204.377	848
211.048	898
217.712	916
224.369	874
231.019	706
237.661	562
244.297	384
250.924	304
257.546	284
264.16	262
270.766	244
277.365	222
283.958	216
290.543	182
297.121	166
303.693	164
310.256	162
316.813	172
323.362	162
329.905	176
336.441	170
342.969	160
349.491	150
356.006	146
362.513	166
369.014	150
375.508	156
381.994	170
388.473	172
394.947	180
401.412	206
407.871	246
414.323	190
420.768	170
427.206	152
433.637	136
440.062	142
446.479	132
452.89	118
459.293	106
465.691	100
472.081	110
478.463	104
484.84	100
491.21	96
497.573	104
503.929	112
510.279	104
516.621	108
522.957	112
529.287	122
535.609	142
541.925	140
548.234	144
554.536	134
560.832	134
567.12	132
573.403	148
579.679	118
585.948	98
592.211	110
598.466	110
604.715	132
610.958	154
617.194	314
623.424	464
629.647	144
635.864	98
642.074	90
648.276	82
654.473	78
660.664	76
666.847	78
673.025	68
679.195	84
685.36	76
691.517	82
697.669	90
703.814	104
709.953	102
716.085	96
722.21	138
728.33	138
734.443	128
740.549	168
746.65	194
752.743	204
758.831	230
764.912	220
770.986	192
777.055	200
783.117	240
789.173	298
795.222	342
801.265	286
807.302	200
813.333	162
819.357	128
825.376	118
831.387	122
837.392	144
843.392	150
849.386	146
855.372	124
861.353	122
867.328	134
873.296	132
879.258	122
885.214	114
891.164	116
897.108	120
903.046	138
908.977	132
914.903	120
920.822	110
926.735	104
932.643	92
938.543	102
944.439	104
950.328	100
956.21	108
962.088	122
967.958	136
973.824	126
979.682	186
985.534	272
991.382	754
997.222	1220
1003.06	2856
1008.89	450
1014.71	188
1020.53	240
1026.34	498
1032.14	870
1037.94	396
1043.73	208
1049.52	172
1055.3	164
1061.08	162
1066.85	180
1072.61	182
1078.37	178
1084.12	176
1089.87	160
1095.61	180
1101.34	170
1107.07	148
1112.8	140
1118.51	124
1124.22	120
1129.93	100
1135.63	108
1141.32	138
1147.01	192
1152.69	346
1158.37	358
1164.04	220
1169.71	212
1175.37	296
1181.02	528
1186.67	446
1192.31	482
1197.95	512
1203.58	460
1209.2	326
1214.82	232
1220.44	202
1226.05	184
1231.65	196
1237.25	174
1242.84	164
1248.42	166
1254	176
1259.58	182
1265.15	184
1270.71	170
1276.27	176
1281.82	190
1287.37	174
1292.91	210
1298.45	216
1303.98	222
1309.5	224
1315.02	242
1320.53	286
1326.04	304
1331.54	298
1337.04	296
1342.53	300
1348.02	270
1353.5	262
1358.98	266
1364.45	290
1369.91	290
1375.37	280
1380.82	268
1386.27	262
1391.71	248
1397.15	264
1402.58	242
1408.01	246
1413.43	242
1418.85	228
1424.26	238
1429.66	236
1435.06	256
1440.46	306
1445.85	346
1451.23	332
1456.61	276
1461.98	224
1467.35	202
1472.71	196
1478.07	182
1483.42	196
1488.77	186
1494.11	186
1499.45	168
1504.78	174
1510.11	178
1515.43	166
1520.74	170
1526.05	164
1531.36	158
1536.66	160
1541.95	170
1547.24	152
1552.52	176
1557.8	166
1563.08	178
1568.35	166
1573.61	202
1578.87	284
1584.12	388
1589.37	250
1594.61	310
1599.85	642
1605.08	556
1610.31	274
1615.53	190
1620.75	168
1625.96	162
1631.17	158
1636.37	154
1641.57	152
1646.76	162
1651.95	144
1657.13	142
1662.31	132
1667.48	130
1672.65	128
1677.81	126
1682.97	130
1688.12	134
1693.27	122
1698.41	120
1702.26	124

File: ps-ppo-6jan25-1,0000-map3_Y03_X10.txt
204.377	840
211.048	888
217.712	940
224.369	866
231.019	720
237.661	568
244.297	398
250.924	308
257.546	282
264.16	266
270.766	250
277.365	244
283.958	226
290.543	188
297.121	168
303.693	160
310.256	164
316.813	168
323.362	162
329.905	176
336.441	162
342.969	168
349.491	148
356.006	146
362.513	150
369.014	148
375.508	162
381.994	170
388.473	180
394.947	174
401.412	212
407.871	228
414.323	186
420.768	170
427.206	162
433.637	136
440.062	144
446.479	144
452.89	122
459.293	110
465.691	110
472.081	104
478.463	112
484.84	90
491.21	96
497.573	106
503.929	110
510.279	104
516.621	112
522.957	116
529.287	134
535.609	128
541.925	142
548.234	136
554.536	140
560.832	134
567.12	140
573.403	144
579.679	120
585.948	118
592.211	122
598.466	118
604.715	136
610.958	140
617.194	320
623.424	466
629.647	144
635.864	106
642.074	80
648.276	80
654.473	74
660.664	86
666.847	82
673.025	76
679.195	78
685.36	82
691.517	80
697.669	86
703.814	96
709.953	88
716.085	90
722.21	146
728.33	130
734.443	128
740.549	192
746.65	178
752.743	214
758.831	228
764.912	228
770.986	194
777.055	206
783.117	234
789.173	320
795.222	342
801.265	286
807.302	196
813.333	158
819.357	124
825.376	118
831.387	114
837.392	146
843.392	152
849.386	142
855.372	120
861.353	130
867.328	128
873.296	122
879.258	118
885.214	118
891.164	104
897.108	118
903.046	136
908.977	144
914.903	126
920.822	104
926.735	94
932.643	100
938.543	100
944.439	96
950.328	102
956.21	104
962.088	114
967.958	128
973.824	132
979.682	178
985.534	258
991.382	798
997.222	1200
1003.06	2900
1008.89	456
1014.71	186
1020.53	222
1026.34	496
1032.14	908
1037.94	404
1043.73	212
1049.52	162
1055.3	154
1061.08	146
1066.85	172
1072.61	180
1078.37	178
1084.12	166
1089.87	166
1095.61	170
1101.34	172
1107.07	136
1112.8	134
1118.51	126
1124.22	118
1129.93	118
1135.63	114
1141.32	134
1147.01	180
1152.69	382
1158.37	352
1164.04	208
1169.71	208
1175.37	306
1181.02	510
1186.67	412
1192.31	490
1197.95	496
1203.58	432
1209.2	338
1214.82	242
1220.44	204
1226.05	176
1231.65	178
1237.25	180
1242.84	160
1248.42	162
1254	162
1259.58	178
1265.15	182
1270.71	164
1276.27	186
1281.82	184
1287.37	184
1292.91	204
1298.45	216
1303.98	222
1309.5	224
1315.02	244
1320.53	274
1326.04	314
1331.54	294
1337.04	308
1342.53	290
1348.02	276
1353.5	278
1358.98	274
1364.45	280
1369.91	298
1375.37	276
1380.82	268
1386.27	256
1391.71	246
1397.15	242
1402.58	256
1408.01	230
1413.43	236
1418.85	224
1424.26	236
1429.66	232
1435.06	246
1440.46	286
1445.85	334
1451.23	334
1456.61	266
1461.98	230
1467.35	202
1472.71	190
1478.07	190
1483.42	194
1488.77	196
1494.11	186
1499.45	176
1504.78	166
1510.11	178
1515.43	178
1520.74	174
1526.05	162
1531.36	180
1536.66	150
1541.95	164
1547.24	170
1552.52	172
1557.8	160
1563.08	164
1568.35	180
1573.61	198
1578.87	278
1584.12	398
1589.37	254
1594.61	308
1599.85	618
1605.08	570
1610.31	274
1615.53	200
1620.75	188
1625.96	166
1631.17	160
1636.37	154
1641.57	160
1646.76	156
1651.95	140
1657.13	134
1662.31	126
1667.48	146
1672.65	136
1677.81	134
1682.97	126
1688.12	124
1693.27	132
1698.41	126
1702.26	130

File: ps-ppo-6jan25-1,0000-map3_Y04_X06.txt
204.377	836
211.048	860
217.712	900
224.369	920
231.019	708
237.661	554
244.297	390
250.924	302
257.546	280
264.16	274
270.766	264
277.365	234
283.958	216
290.543	188
297.121	186
303.693	166
310.256	170
316.813	166
323.362	170
329.905	158
336.441	164
342.969	158
349.491	162
356.006	164
362.513	146
369.014	146
375.508	162
381.994	164
388.473	182
394.947	178
401.412	212
407.871	220
414.323	194
420.768	174
427.206	148
433.637	140
440.062	140
446.479	128
452.89	128
459.293	114
465.691	104
472.081	110
478.463	104
484.84	92
491.21	98
497.573	94
503.929	104
510.279	114
516.621	108
522.957	118
529.287	130
535.609	154
541.925	144
548.234	144
554.536	134
560.832	132
567.12	138
573.403	140
579.679	112
585.948	112
592.211	110
598.466	114
604.715	130
610.958	148
617.194	318
623.424	462
629.647	150
635.864	100
642.074	98
648.276	90
654.473	80
660.664	82
666.847	64
673.025	82
679.195	78
685.36	86
691.517	68
697.669	88
703.814	102
709.953	106
716.085	100
722.21	134
728.33	134
734.443	134
740.549	182
746.65	176
752.743	196
758.831	224
764.912	230
770.986	204
777.055	200
783.117	248
789.173	318
795.222	350
801.265	274
807.302	198
813.333	168
819.357	128
825.376	104
831.387	118
837.392	146
843.392	148
849.386	132
855.372	128
861.353	124
867.328	122
873.296	126
879.258	124
885.214	114
891.164	108
897.108	120
903.046	136
908.977	140
914.903	122
920.822	96
926.735	90
932.643	84
938.543	96
944.439	98
950.328	108
956.21	104
962.088	120
967.958	132
973.824	128
979.682	186
985.534	274
991.382	784
997.222	1244
1003.06	2904
1008.89	434
1014.71	198
1020.53	238
1026.34	470
1032.14	924
1037.94	400
1043.73	212
1049.52	162
1055.3	158
1061.08	156
1066.85	164
1072.61	182
1078.37	194
1084.12	172
1089.87	176
1095.61	170
1101.34	176
1107.07	146
1112.8	134
1118.51	106
1124.22	102
1129.93	108
1135.63	122
1141.32	130
1147.01	162
1152.69	346
1158.37	330
1164.04	212
1169.71	220
1175.37	284
1181.02	538
1186.67	426
1192.31	482
1197.95	514
1203.58	458
1209.2	306
1214.82	244
1220.44	212
1226.05	200
1231.65	178
1237.25	164
1242.84	162
1248.42	170
1254	172
1259.58	166
1265.15	154
1270.71	170
1276.27	166
1281.82	166
1287.37	182
1292.91	182
1298.45	214
1303.98	206
1309.5	238
1315.02	242
1320.53	280
1326.04	286
1331.54	308
1337.04	294
1342.53	264
1348.02	256
1353.5	254
1358.98	258
1364.45	268
1369.91	290
1375.37	282
1380.82	256
1386.27	242
1391.71	236
1397.15	250
1402.58	240
1408.01	222
1413.43	226
1418.85	214
1424.26	216
1429.66	222
1435.06	248
1440.46	262
1445.85	320
1451.23	320
1456.61	290
1461.98	210
1467.35	186
1472.71	188
1478.07	190
1483.42	174
1488.77	178
1494.11	198
1499.45	168
1504.78	172
1510.11	174
1515.43	164
1520.74	166
1526.05	162
1531.36	160
1536.66	160
1541.95	162
1547.24	164
1552.52	158
1557.8	162
1563.08	168
1568.35	188
1573.61	188
1578.87	266
1584.12	386
1589.37	252
1594.61	298
1599.85	604
1605.08	524
1610.31	286
1615.53	196
1620.75	172
1625.96	158
1631.17	166
1636.37	154
1641.57	154
1646.76	152
1651.95	144
1657.13	128
1662.31	134
1667.48	130
1672.65	128
1677.81	124
1682.97	128
1688.12	130
1693.27	112
1698.41	118
1702.26	122

File: ps-ppo-6jan25-1,0000-map3_Y04_X08.txt
204.377	852
211.048	884
217.712	888
224.369	872
231.019	712
237.661	550
244.297	396
250.924	300
257.546	286
264.16	278
270.766	236
277.365	228
283.958	206
290.543	200
297.121	166
303.693	162
310.256	168
316.813	170
323.362	172
329.905	176
336.441	162
342.969	144
349.491	146
356.006	146
362.513	148
369.014	164
375.508	166
381.994	170
388.473	182
394.947	184
401.412	204
407.871	224
414.323	190
420.768	172
427.206	156
433.637	146
440.062	130
446.479	132
452.89	118
459.293	102
465.691	104
472.081	110
478.463	102
484.84	102
491.21	108
497.573	98
503.929	98
510.279	102
516.621	114
522.957	114
529.287	124
535.609	138
541.925	150
548.234	144
554.536	134
560.832	130
567.12	144
573.403	136
579.679	118
585.948	114
592.211	108
598.466	114
604.715	134
610.958	152
617.194	318
623.424	456
629.647	142
635.864	108
642.074	82
648.276	80
654.473	78
660.664	84
666.847	80
673.025	78
679.195	78
685.36	76
691.517	86
697.669	90
703.814	94
709.953	98
716.085	88
722.21	130
728.33	136
734.443	134
740.549	194
746.65	182
752.743	200
758.831	240
764.912	222
770.986	206
777.055	202
783.117	224
789.173	294
795.222	342
801.265	280
807.302	190
813.333	154
819.357	122
825.376	118
831.387	114
837.392	156
843.392	158
849.386	134
855.372	124
861.353	132
867.328	122
873.296	120
879.258	114
885.214	116
891.164	106
897.108	122
903.046	138
908.977	144
914.903	124
920.822	100
926.735	90
932.643	96
938.543	96
944.439	118
950.328	106
956.21	104
962.088	118
967.958	124
973.824	128
979.682	188
985.534	274
991.382	778
997.222	1196
1003.06	2836
1008.89	422
1014.71	182
1020.53	218
1026.34	486
1032.14	922
1037.94	414
1043.73	204
1049.52	174
1055.3	164
1061.08	174
1066.85	170
1072.61	176
1078.37	172
1084.12	168
1089.87	168
1095.61	156
1101.34	176
1107.07	142
1112.8	138
1118.51	118
1124.22	106
1129.93	110
1135.63	116
1141.32	130
1147.01	180
1152.69	358
1158.37	340
1164.04	210
1169.71	214
1175.37	292
1181.02	536
1186.67	450
1192.31	490
1197.95	516
1203.58	446
1209.2	322
1214.82	242
1220.44	204
1226.05	194
1231.65	190
1237.25	174
1242.84	188
1248.42	174
1254	158
1259.58	170
1265.15	182
1270.71	168
1276.27	170
1281.82	180
1287.37	192
1292.91	196
1298.45	212
1303.98	222
1309.5	224
1315.02	248
1320.53	274
1326.04	282
1331.54	304
1337.04	288
1342.53	268
1348.02	256
1353.5	280
1358.98	276
1364.45	282
1369.91	290
1375.37	286
1380.82	272
1386.27	254
1391.71	248
1397.15	258
1402.58	242
1408.01	238
1413.43	226
1418.85	218
1424.26	232
1429.66	220
1435.06	254
1440.46	272
1445.85	332
1451.23	326
1456.61	262
1461.98	226
1467.35	210
1472.71	194
1478.07	180
1483.42	178
1488.77	192
1494.11	184
1499.45	174
1504.78	184
1510.11	174
1515.43	164
1520.74	166
1526.05	172
1531.36	166
1536.66	156
1541.95	174
1547.24	172
1552.52	162
1557.8	166
1563.08	154
1568.35	182
1573.61	204
1578.87	276
1584.12	400
1589.37	248
1594.61	322
1599.85	616
1605.08	554
1610.31	290
1615.53	202
1620.75	194
1625.96	170
1631.17	150
1636.37	148
1641.57	158
1646.76	164
1651.95	148
1657.13	138
1662.31	140
1667.48	134
1672.65	138
1677.81	122
1682.97	134
1688.12	118
1693.27	122
1698.41	124
1702.26	120

File: ps-ppo-6jan25-1,0000-map3_Y05_X00.txt
204.377	834
211.048	844
217.712	962
224.369	840
231.019	714
237.661	534
244.297	392
250.924	308
257.546	270
264.16	250
270.766	244
277.365	244
283.958	214
290.543	190
297.121	170
303.693	170
310.256	170
316.813	164
323.362	174
329.905	168
336.441	162
342.969	160
349.491	144
356.006	142
362.513	150
369.014	142
375.508	164
381.994	176
388.473	170
394.947	202
401.412	212
407.871	206
414.323	196
420.768	160
427.206	154
433.637	136
440.062	140
446.479	132
452.89	112
459.293	108
465.691	112
472.081	102
478.463	102
484.84	104
491.21	96
497.573	102
503.929	108
510.279	106
516.621	108
522.957	114
529.287	120
535.609	138
541.925	140
548.234	136
554.536	138
560.832	132
567.12	148
573.403	148
579.679	116
585.948	100
592.211	112
598.466	114
604.715	124
610.958	142
617.194	326
623.424	480
629.647	150
635.864	108
642.074	94
648.276	78
654.473	74
660.664	72
666.847	74
673.025	72
679.195	64
685.36	72
691.517	74
697.669	92
703.814	92
709.953	94
716.085	96
722.21	128
728.33	138
734.443	130
740.549	184
746.65	184
752.743	214
758.831	232
764.912	218
770.986	194
777.055	198
783.117	228
789.173	310
795.222	334
801.265	272
807.302	212
813.333	150
819.357	126
825.376	114
831.387	114
837.392	140
843.392	154
849.386	142
855.372	126
861.353	126
867.328	122
873.296	110
879.258	114
885.214	106
891.164	112
897.108	122
903.046	132
908.977	142
914.903	112
920.822	100
926.735	94
932.643	96
938.543	98
944.439	104
950.328	102
956.21	110
962.088	124
967.958	114
973.824	138
979.682	194
985.534	264
991.382	760
997.222	1200
1003.06	2844
1008.89	450
1014.71	180
1020.53	214
1026.34	478
1032.14	862
1037.94	406
1043.73	192
1049.52	162
1055.3	148
1061.08	144
1066.85	176
1072.61	174
1078.37	164
1084.12	164
1089.87	158
1095.61	180
1101.34	176
1107.07	136
1112.8	122
1118.51	112
1124.22	116
1129.93	114
1135.63	110
1141.32	122
1147.01	172
1152.69	358
1158.37	338
1164.04	212
1169.71	206
1175.37	290
1181.02	508
1186.67	442
1192.31	450
1197.95	502
1203.58	444
1209.2	322
1214.82	222
1220.44	194
1226.05	204
1231.65	168
1237.25	170
1242.84	166
1248.42	162
1254	166
1259.58	156
1265.15	158
1270.71	154
1276.27	154
1281.82	168
1287.37	176
1292.91	174
1298.45	214
1303.98	206
1309.5	214
1315.02	238
1320.53	258
1326.04	310
1331.54	284
1337.04	264
1342.53	270
1348.02	262
1353.5	256
1358.98	260
1364.45	284
1369.91	266
1375.37	270
1380.82	252
1386.27	228
1391.71	226
1397.15	214
1402.58	222
1408.01	226
1413.43	218
1418.85	212
1424.26	206
1429.66	230
1435.06	234
1440.46	282
1445.85	316
1451.23	290
1456.61	276
1461.98	190
1467.35	192
1472.71	184
1478.07	178
1483.42	180
1488.77	184
1494.11	164
1499.45	162
1504.78	162
1510.11	164
1515.43	156
1520.74	170
1526.05	162
1531.36	146
1536.66	160
1541.95	166
1547.24	166
1552.52	148
1557.8	154
1563.08	166
1568.35	160
1573.61	176
1578.87	258
1584.12	400
1589.37	252
1594.61	298
1599.85	616
1605.08	564
1610.31	268
1615.53	198
1620.75	170
1625.96	158
1631.17	136
1636.37	140
1641.57	142
1646.76	144
1651.95	150
1657.13	136
1662.31	122
1667.48	118
1672.65	126
1677.81	132
1682.97	112
1688.12	126
1693.27	112
1698.41	110
1702.26	118