Folder: NRC_SU25_Spectral_Classification/Mixture_Classification/Jesse_Dataset_v2/Pure Raman/Polystyrene/785nm

Note: README.md
# Spectral Classification Project

This repository contains implementations of various machine learning and deep learning methods for the **one-shot classification of chemical spectra**. The goal is to identify the **chemical identity** of an unknown **Raman spectrum** by finding the best match from a reference library of known spectra.

The project explores and compares **four distinct approaches**, inspired by the methods described in *[Halas et al., ACS Nano, 2023](https://doi.org/10.1021/acsnano.3c05510)*.


---

## Core Concept: Spectral Identification

The fundamental problem is to take a **high-dimensional spectrum** from an unknown sample and accurately identify it by comparing it against a **library of known spectra**. Each method in this repository tackles this problem through a different **feature extraction** and **similarity matching** strategy.

---

## Included Implementations

This repository includes four primary methods for spectral classification:

- `CaPSim` (Characteristic Peak Similarity)
- `CaPSim` with `k-NN` Classifier
- `PCA` (Principal Component Analysis) Classifier
- `Siamese Network` for One-Shot Learning

All methods assume the data is provided in **CSV format**, with one file for the **reference library** and one for the **query spectra**. The **last column** in each file should be named **`Label`** and contain the chemical identifier.

---

### 1. CaPSim (Characteristic Peak Similarity)
**Script:** `CaPSim.py`  
**Approach:** Local peak-based dot-product similarity

**Concept:**  
This method directly implements the approach described in the Halas et al. paper. It assumes that key information in a spectrum is concentrated in a few discrete **characteristic peaks (CPs)**.

**Workflow:**
- **Preprocessing:** Baseline correction and L2 normalization
- **Feature Definition:** Identify most frequent or intense peaks per class → class-specific CPs
- **Feature Extraction:** Extract maximum intensity around CPs for each query
- **Similarity Matching:** Compute mean dot-product (CaPSim score); assign query to class with highest score

---

### 2. CaPSim with k-NN Classifier
**Script:** `CaPSim_kNN.py`  
**Approach:** Local peak-based features with supervised classification

**Concept:**  
An extension of CaPSim that uses the same CP-based features but replaces dot-product similarity with a learned `k-Nearest Neighbors` classifier.

**Workflow:**
- **Preprocessing:** Same as baseline CaPSim
- **Feature Definition:** Global CP set = union of all class CPs
- **Feature Extraction:** Fixed-length feature vectors for all reference spectra
- **Training:** Train a `k-NN` model using cosine distance
- **Classification:** Predict query identity using trained model

---

### 3. PCA (Principal Component Analysis) Classifier
**Script:** `PCA_Classification.py`  
**Approach:** Global shape-based classification in PCA space

**Concept:**  
A benchmark method that uses global spectral shape via PCA. It reduces the dimensionality of the spe

File: ps-ppo-6jan25-1,0000-map3_Y00_X00.txt
204.377	832
211.048	900
217.712	916
224.369	898
231.019	728
237.661	530
244.297	372
250.924	314
257.546	266
264.16	274
270.766	250
277.365	224
283.958	218
290.543	192
297.121	176
303.693	152
310.256	178
316.813	168
323.362	168
329.905	174
336.441	170
342.969	164
349.491	156
356.006	144
362.513	142
369.014	156
375.508	170
381.994	178
388.473	186
394.947	182
401.412	216
407.871	230
414.323	190
420.768	172
427.206	166
433.637	148
440.062	144
446.479	136
452.89	114
459.293	106
465.691	98
472.081	106
478.463	102
484.84	110
491.21	96
497.573	102
503.929	104
510.279	106
516.621	110
522.957	110
529.287	118
535.609	136
541.925	144
548.234	146
554.536	136
560.832	130
567.12	134
573.403	134
579.679	120
585.948	124
592.211	106
598.466	116
604.715	140
610.958	136
617.194	332
623.424	458
629.647	148
635.864	108
642.074	86
648.276	82
654.473	82
660.664	84
666.847	80
673.025	78
679.195	80
685.36	76
691.517	74
697.669	98
703.814	96
709.953	100
716.085	98
722.21	132
728.33	142
734.443	150
740.549	174
746.65	188
752.743	206
758.831	238
764.912	214
770.986	198
777.055	206
783.117	234
789.173	312
795.222	352
801.265	272
807.302	204
813.333	160
819.357	134
825.376	120
831.387	116
837.392	154
843.392	150
849.386	142
855.372	126
861.353	118
867.328	128
873.296	134
879.258	120
885.214	120
891.164	114
897.108	126
903.046	150
908.977	140
914.903	114
920.822	108
926.735	96
932.643	94
938.543	98
944.439	100
950.328	106
956.21	114
962.088	120
967.958	126
973.824	130
979.682	182
985.534	262
991.382	698
997.222	1198
1003.06	2890
1008.89	438
1014.71	194
1020.53	226
1026.34	504
1032.14	942
1037.94	400
1043.73	190
1049.52	146
1055.3	152
1061.08	174
1066.85	172
1072.61	168
1078.37	164
1084.12	156
1089.87	164
1095.61	178
1101.34	154
1107.07	138
1112.8	126
1118.51	112
1124.22	100
1129.93	116
1135.63	112
1141.32	136
1147.01	166
1152.69	370
1158.37	344
1164.04	220
1169.71	198
1175.37	274
1181.02	510
1186.67	428
1192.31	492
1197.95	504
1203.58	426
1209.2	338
1214.82	224
1220.44	216
1226.05	188
1231.65	186
1237.25	156
1242.84	172
1248.42	166
1254	154
1259.58	164
1265.15	164
1270.71	156
1276.27	160
1281.82	166
1287.37	172
1292.91	186
1298.45	198
1303.98	204
1309.5	212
1315.02	230
1320.53	246
1326.04	284
1331.54	278
1337.04	278
1342.53	252
1348.02	252
1353.5	256
1358.98	258
1364.45	272
1369.91	272
1375.37	270
1380.82	238
1386.27	236
1391.71	236
1397.15	218
1402.58	222
1408.01	214
1413.43	206
1418.85	220
1424.26	208
1429.66	208
1435.06	238
1440.46	280
1445.85	320
1451.23	316
1456.61	270
1461.98	196
1467.35	184
1472.71	180
1478.07	174
1483.42	168
1488.77	164
1494.11	176
1499.45	160
1504.78	174
1510.11	160
1515.43	158
1520.74	150
1526.05	156
1531.36	142
1536.66	146
1541.95	152
1547.24	164
1552.52	166
1557.8	162
1563.08	166
1568.35	176
1573.61	182
1578.87	272
1584.12	414
1589.37	244
1594.61	286
1599.85	608
1605.08	536
1610.31	276
1615.53	190
1620.75	162
1625.96	134
1631.17	148
1636.37	154
1641.57	156
1646.76	148
1651.95	140
1657.13	138
1662.31	132
1667.48	128
1672.65	114
1677.81	124
1682.97	136
1688.12	126
1693.27	130
1698.41	114
1702.26	116

File: ps-ppo-6jan25-1,0000-map3_Y00_X05.txt
204.377	838
211.048	860
217.712	906
224.369	894
231.019	714
237.661	522
244.297	376
250.924	290
257.546	278
264.16	252
270.766	240
277.365	230
283.958	206
290.543	192
297.121	172
303.693	174
310.256	156
316.813	170
323.362	172
329.905	162
336.441	176
342.969	148
349.491	148
356.006	152
362.513	132
369.014	162
375.508	160
381.994	162
388.473	178
394.947	178
401.412	206
407.871	232
414.323	188
420.768	164
427.206	150
433.637	142
440.062	142
446.479	126
452.89	114
459.293	98
465.691	104
472.081	96
478.463	90
484.84	88
491.21	88
497.573	102
503.929	108
510.279	106
516.621	110
522.957	108
529.287	126
535.609	136
541.925	146
548.234	146
554.536	132
560.832	126
567.12	130
573.403	136
579.679	120
585.948	102
592.211	112
598.466	112
604.715	134
610.958	146
617.194	306
623.424	464
629.647	150
635.864	106
642.074	82
648.276	82
654.473	80
660.664	70
666.847	82
673.025	74
679.195	74
685.36	76
691.517	70
697.669	78
703.814	104
709.953	98
716.085	86
722.21	128
728.33	118
734.443	130
740.549	176
746.65	182
752.743	206
758.831	238
764.912	214
770.986	214
777.055	200
783.117	230
789.173	302
795.222	358
801.265	274
807.302	198
813.333	154
819.357	124
825.376	112
831.387	106
837.392	136
843.392	158
849.386	134
855.372	120
861.353	122
867.328	118
873.296	126
879.258	116
885.214	126
891.164	110
897.108	114
903.046	140
908.977	146
914.903	118
920.822	104
926.735	94
932.643	92
938.543	100
944.439	94
950.328	92
956.21	100
962.088	124
967.958	130
973.824	132
979.682	182
985.534	276
991.382	750
997.222	1202
1003.06	2898
1008.89	442
1014.71	192
1020.53	218
1026.34	496
1032.14	908
1037.94	400
1043.73	196
1049.52	162
1055.3	160
1061.08	156
1066.85	166
1072.61	168
1078.37	162
1084.12	164
1089.87	168
1095.61	172
1101.34	158
1107.07	138
1112.8	120
1118.51	122
1124.22	108
1129.93	108
1135.63	110
1141.32	134
1147.01	166
1152.69	346
1158.37	348
1164.04	204
1169.71	204
1175.37	298
1181.02	506
1186.67	428
1192.31	478
1197.95	480
1203.58	450
1209.2	320
1214.82	226
1220.44	210
1226.05	206
1231.65	168
1237.25	166
1242.84	174
1248.42	164
1254	174
1259.58	174
1265.15	174
1270.71	170
1276.27	174
1281.82	178
1287.37	172
1292.91	180
1298.45	202
1303.98	222
1309.5	226
1315.02	236
1320.53	262
1326.04	294
1331.54	292
1337.04	288
1342.53	256
1348.02	268
1353.5	254
1358.98	264
1364.45	270
1369.91	284
1375.37	276
1380.82	256
1386.27	236
1391.71	228
1397.15	232
1402.58	232
1408.01	218
1413.43	214
1418.85	220
1424.26	204
1429.66	226
1435.06	242
1440.46	272
1445.85	322
1451.23	320
1456.61	264
1461.98	210
1467.35	194
1472.71	186
1478.07	182
1483.42	170
1488.77	178
1494.11	188
1499.45	168
1504.78	154
1510.11	164
1515.43	150
1520.74	154
1526.05	164
1531.36	166
1536.66	152
1541.95	152
1547.24	164
1552.52	156
1557.8	166
1563.08	162
1568.35	176
1573.61	190
1578.87	270
1584.12	388
1589.37	248
1594.61	288
1599.85	640
1605.08	560
1610.31	254
1615.53	196
1620.75	184
1625.96	162
1631.17	144
1636.37	146
1641.57	142
1646.76	160
1651.95	136
1657.13	140
1662.31	136
1667.48	132
1672.65	124
1677.81	112
1682.97	126
1688.12	128
1693.27	114
1698.41	118
1702.26	116

File: ps-ppo-6jan25-1,0000-map3_Y00_X06.txt
204.377	850
211.048	854
217.712	910
224.369	902
231.019	726
237.661	522
244.297	370
250.924	314
257.546	268
264.16	246
270.766	242
277.365	232
283.958	186
290.543	166
297.121	184
303.693	148
310.256	162
316.813	162
323.362	168
329.905	162
336.441	160
342.969	160
349.491	150
356.006	140
362.513	146
369.014	146
375.508	146
381.994	176
388.473	174
394.947	190
401.412	208
407.871	224
414.323	186
420.768	164
427.206	150
433.637	142
440.062	140
446.479	130
452.89	118
459.293	96
465.691	108
472.081	96
478.463	94
484.84	88
491.21	96
497.573	100
503.929	108
510.279	106
516.621	104
522.957	98
529.287	124
535.609	148
541.925	144
548.234	140
554.536	132
560.832	134
567.12	128
573.403	136
579.679	126
585.948	108
592.211	98
598.466	120
604.715	124
610.958	144
617.194	302
623.424	476
629.647	130
635.864	110
642.074	82
648.276	82
654.473	68
660.664	82
666.847	70
673.025	78
679.195	82
685.36	68
691.517	76
697.669	86
703.814	98
709.953	92
716.085	90
722.21	136
728.33	130
734.443	136
740.549	188
746.65	180
752.743	200
758.831	228
764.912	214
770.986	204
777.055	198
783.117	234
789.173	306
795.222	350
801.265	280
807.302	204
813.333	162
819.357	122
825.376	108
831.387	118
837.392	146
843.392	160
849.386	140
855.372	126
861.353	128
867.328	120
873.296	128
879.258	124
885.214	112
891.164	100
897.108	118
903.046	138
908.977	134
914.903	118
920.822	94
926.735	100
932.643	96
938.543	98
944.439	100
950.328	102
956.21	104
962.088	112
967.958	128
973.824	134
979.682	186
985.534	266
991.382	780
997.222	1214
1003.06	2916
1008.89	450
1014.71	202
1020.53	218
1026.34	488
1032.14	908
1037.94	394
1043.73	204
1049.52	162
1055.3	152
1061.08	156
1066.85	174
1072.61	164
1078.37	148
1084.12	162
1089.87	158
1095.61	176
1101.34	180
1107.07	148
1112.8	120
1118.51	112
1124.22	102
1129.93	108
1135.63	112
1141.32	142
1147.01	168
1152.69	354
1158.37	338
1164.04	210
1169.71	216
1175.37	296
1181.02	514
1186.67	426
1192.31	476
1197.95	520
1203.58	450
1209.2	302
1214.82	236
1220.44	210
1226.05	188
1231.65	182
1237.25	176
1242.84	166
1248.42	170
1254	170
1259.58	180
1265.15	146
1270.71	160
1276.27	158
1281.82	178
1287.37	172
1292.91	184
1298.45	206
1303.98	204
1309.5	226
1315.02	236
1320.53	274
1326.04	282
1331.54	300
1337.04	290
1342.53	264
1348.02	258
1353.5	268
1358.98	268
1364.45	254
1369.91	272
1375.37	274
1380.82	270
1386.27	238
1391.71	236
1397.15	234
1402.58	240
1408.01	234
1413.43	220
1418.85	214
1424.26	216
1429.66	216
1435.06	232
1440.46	274
1445.85	326
1451.23	332
1456.61	270
1461.98	200
1467.35	188
1472.71	188
1478.07	184
1483.42	186
1488.77	178
1494.11	190
1499.45	178
1504.78	156
1510.11	152
1515.43	164
1520.74	160
1526.05	162
1531.36	166
1536.66	164
1541.95	174
1547.24	162
1552.52	164
1557.8	162
1563.08	166
1568.35	168
1573.61	186
1578.87	270
1584.12	402
1589.37	238
1594.61	310
1599.85	614
1605.08	552
1610.31	272
1615.53	194
1620.75	178
1625.96	158
1631.17	144
1636.37	158
1641.57	152
1646.76	148
1651.95	146
1657.13	134
1662.31	130
1667.48	126
1672.65	126
1677.81	128
1682.97	124
1688.12	130
1693.27	110
1698.41	116
1702.26	132

File: ps-ppo-6jan25-1,0000-map3_Y00_X07.txt
204.377	850
211.048	856
217.712	954
224.369	908
231.019	704
237.661	532
244.297	366
250.924	318
257.546	270
264.16	268
270.766	248
277.365	218
283.958	208
290.543	188
297.121	176
303.693	164
310.256	170
316.813	168
323.362	164
329.905	170
336.441	170
342.969	164
349.491	144
356.006	136
362.513	152
369.014	158
375.508	164
381.994	176
388.473	190
394.947	210
401.412	198
407.871	244
414.323	188
420.768	166
427.206	150
433.637	146
440.062	132
446.479	126
452.89	108
459.293	114
465.691	112
472.081	102
478.463	92
484.84	100
491.21	100
497.573	102
503.929	108
510.279	108
516.621	106
522.957	110
529.287	128
535.609	138
541.925	146
548.234	142
554.536	142
560.832	128
567.12	138
573.403	148
579.679	116
585.948	120
592.211	122
598.466	110
604.715	128
610.958	136
617.194	314
623.424	490
629.647	148
635.864	108
642.074	88
648.276	78
654.473	76
660.664	80
666.847	76
673.025	78
679.195	76
685.36	82
691.517	76
697.669	86
703.814	112
709.953	92
716.085	102
722.21	132
728.33	134
734.443	132
740.549	164
746.65	186
752.743	216
758.831	240
764.912	206
770.986	198
777.055	202
783.117	240
789.173	292
795.222	346
801.265	296
807.302	192
813.333	164
819.357	118
825.376	110
831.387	120
837.392	138
843.392	164
849.386	138
855.372	118
861.353	132
867.328	120
873.296	128
879.258	118
885.214	112
891.164	120
897.108	126
903.046	146
908.977	142
914.903	124
920.822	106
926.735	100
932.643	94
938.543	90
944.439	102
950.328	98
956.21	104
962.088	124
967.958	130
973.824	132
979.682	184
985.534	292
991.382	776
997.222	1210
1003.06	2864
1008.89	436
1014.71	192
1020.53	222
1026.34	486
1032.14	890
1037.94	430
1043.73	198
1049.52	156
1055.3	148
1061.08	146
1066.85	186
1072.61	180
1078.37	172
1084.12	172
1089.87	162
1095.61	162
1101.34	168
1107.07	160
1112.8	132
1118.51	120
1124.22	112
1129.93	108
1135.63	110
1141.32	120
1147.01	174
1152.69	362
1158.37	348
1164.04	212
1169.71	212
1175.37	302
1181.02	508
1186.67	424
1192.31	480
1197.95	516
1203.58	424
1209.2	320
1214.82	222
1220.44	208
1226.05	196
1231.65	186
1237.25	170
1242.84	178
1248.42	148
1254	166
1259.58	170
1265.15	170
1270.71	168
1276.27	172
1281.82	170
1287.37	174
1292.91	208
1298.45	190
1303.98	212
1309.5	242
1315.02	236
1320.53	274
1326.04	294
1331.54	290
1337.04	272
1342.53	272
1348.02	268
1353.5	254
1358.98	282
1364.45	254
1369.91	276
1375.37	264
1380.82	268
1386.27	234
1391.71	242
1397.15	248
1402.58	234
1408.01	232
1413.43	218
1418.85	234
1424.26	218
1429.66	220
1435.06	230
1440.46	280
1445.85	322
1451.23	344
1456.61	262
1461.98	224
1467.35	198
1472.71	196
1478.07	178
1483.42	178
1488.77	182
1494.11	192
1499.45	164
1504.78	178
1510.11	162
1515.43	164
1520.74	158
1526.05	166
1531.36	156
1536.66	166
1541.95	154
1547.24	158
1552.52	168
1557.8	160
1563.08	168
1568.35	170
1573.61	194
1578.87	298
1584.12	396
1589.37	250
1594.61	304
1599.85	606
1605.08	546
1610.31	278
1615.53	190
1620.75	174
1625.96	162
1631.17	144
1636.37	146
1641.57	156
1646.76	150
1651.95	144
1657.13	132
1662.31	134
1667.48	138
1672.65	122
1677.81	132
1682.97	124
1688.12	118
1693.27	132
1698.41	124
1702.26	124

File: ps-ppo-6jan25-1,0000-map3_Y00_X08.txt
204.377	816
211.048	904
217.712	910
224.369	900
231.019	740
237.661	554
244.297	416
250.924	316
257.546	258
264.16	272
270.766	248
277.365	220
283.958	210
290.543	190
297.121	180
303.693	162
310.256	166
316.813	166
323.362	160
329.905	156
336.441	152
342.969	170
349.491	166
356.006	144
362.513	162
369.014	154
375.508	164
381.994	166
388.473	184
394.947	206
401.412	216
407.871	236
414.323	192
420.768	168
427.206	154
433.637	136
440.062	142
446.479	130
452.89	122
459.293	108
465.691	104
472.081	98
478.463	102
484.84	102
491.21	94
497.573	106
503.929	112
510.279	102
516.621	108
522.957	112
529.287	126
535.609	142
541.925	144
548.234	128
554.536	128
560.832	140
567.12	128
573.403	124
579.679	122
585.948	116
592.211	114
598.466	118
604.715	132
610.958	148
617.194	320
623.424	458
629.647	142
635.864	114
642.074	86
648.276	78
654.473	82
660.664	72
666.847	80
673.025	76
679.195	74
685.36	74
691.517	78
697.669	92
703.814	96
709.953	102
716.085	96
722.21	134
728.33	140
734.443	128
740.549	180
746.65	172
752.743	196
758.831	242
764.912	222
770.986	200
777.055	200
783.117	238
789.173	314
795.222	338
801.265	284
807.302	186
813.333	154
819.357	120
825.376	116
831.387	116
837.392	138
843.392	138
849.386	128
855.372	122
861.353	118
867.328	122
873.296	128
879.258	128
885.214	112
891.164	112
897.108	126
903.046	142
908.977	148
914.903	120
920.822	102
926.735	92
932.643	96
938.543	92
944.439	104
950.328	104
956.21	108
962.088	118
967.958	128
973.824	132
979.682	192
985.534	290
991.382	752
997.222	1200
1003.06	2940
1008.89	456
1014.71	200
1020.53	214
1026.34	488
1032.14	902
1037.94	414
1043.73	210
1049.52	152
1055.3	154
1061.08	164
1066.85	186
1072.61	178
1078.37	168
1084.12	160
1089.87	150
1095.61	172
1101.34	170
1107.07	148
1112.8	130
1118.51	114
1124.22	114
1129.93	108
1135.63	104
1141.32	130
1147.01	170
1152.69	350
1158.37	344
1164.04	234
1169.71	208
1175.37	296
1181.02	516
1186.67	432
1192.31	470
1197.95	510
1203.58	444
1209.2	322
1214.82	234
1220.44	210
1226.05	192
1231.65	168
1237.25	176
1242.84	158
1248.42	172
1254	178
1259.58	170
1265.15	160
1270.71	166
1276.27	170
1281.82	160
1287.37	180
1292.91	200
1298.45	214
1303.98	204
1309.5	220
1315.02	250
1320.53	292
1326.04	294
1331.54	294
1337.04	282
1342.53	274
1348.02	256
1353.5	282
1358.98	276
1364.45	286
1369.91	300
1375.37	276
1380.82	264
1386.27	248
1391.71	252
1397.15	244
1402.58	234
1408.01	224
1413.43	230
1418.85	220
1424.26	236
1429.66	232
1435.06	252
1440.46	292
1445.85	346
1451.23	334
1456.61	268
1461.98	224
1467.35	208
1472.71	196
1478.07	182
1483.42	176
1488.77	182
1494.11	188
1499.45	178
1504.78	162
1510.11	162
1515.43	164
1520.74	162
1526.05	162
1531.36	158
1536.66	156
1541.95	162
1547.24	166
1552.52	162
1557.8	174
1563.08	156
1568.35	182
1573.61	196
1578.87	274
1584.12	400
1589.37	240
1594.61	302
1599.85	608
1605.08	562
1610.31	274
1615.53	212
1620.75	174
1625.96	162
1631.17	154
1636.37	154
1641.57	144
1646.76	150
1651.95	136
1657.13	136
1662.31	132
1667.48	140
1672.65	126
1677.81	124
1682.97	148
1688.12	136
1693.27	132
1698.41	114
1702.26	120

File: ps-ppo-6jan25-1,0000-map3_Y00_X10.txt
204.377	828
211.048	874
217.712	914
224.369	878
231.019	730
237.661	544
244.297	378
250.924	298
257.546	276
264.16	262
270.766	252
277.365	232
283.958	204
290.543	194
297.121	176
303.693	164
310.256	150
316.813	180
323.362	172
329.905	172
336.441	154
342.969	164
349.491	152
356.006	150
362.513	146
369.014	146
375.508	168
381.994	176
388.473	184
394.947	198
401.412	206
407.871	228
414.323	198
420.768	166
427.206	156
433.637	136
440.062	132
446.479	122
452.89	118
459.293	116
465.691	108
472.081	110
478.463	102
484.84	90
491.21	96
497.573	102
503.929	114
510.279	106
516.621	102
522.957	110
529.287	134
535.609	140
541.925	158
548.234	136
554.536	138
560.832	138
567.12	134
573.403	138
579.679	110
585.948	100
592.211	100
598.466	110
604.715	126
610.958	144
617.194	316
623.424	472
629.647	146
635.864	94
642.074	86
648.276	80
654.473	80
660.664	78
666.847	74
673.025	74
679.195	78
685.36	76
691.517	72
697.669	86
703.814	102
709.953	92
716.085	98
722.21	130
728.33	136
734.443	136
740.549	160
746.65	194
752.743	200
758.831	230
764.912	218
770.986	202
777.055	180
783.117	246
789.173	308
795.222	348
801.265	274
807.302	198
813.333	160
819.357	122
825.376	116
831.387	114
837.392	146
843.392	156
849.386	136
855.372	134
861.353	124
867.328	122
873.296	114
879.258	112
885.214	104
891.164	116
897.108	130
903.046	142
908.977	148
914.903	114
920.822	102
926.735	102
932.643	98
938.543	100
944.439	102
950.328	102
956.21	108
962.088	124
967.958	142
973.824	136
979.682	188
985.534	276
991.382	790
997.222	1218
1003.06	2856
1008.89	434
1014.71	216
1020.53	218
1026.34	482
1032.14	876
1037.94	406
1043.73	208
1049.52	152
1055.3	152
1061.08	166
1066.85	172
1072.61	180
1078.37	178
1084.12	154
1089.87	156
1095.61	164
1101.34	168
1107.07	148
1112.8	120
1118.51	118
1124.22	110
1129.93	116
1135.63	114
1141.32	126
1147.01	164
1152.69	362
1158.37	330
1164.04	206
1169.71	208
1175.37	312
1181.02	530
1186.67	424
1192.31	476
1197.95	512
1203.58	466
1209.2	334
1214.82	234
1220.44	210
1226.05	202
1231.65	182
1237.25	172
1242.84	170
1248.42	164
1254	174
1259.58	162
1265.15	172
1270.71	162
1276.27	164
1281.82	182
1287.37	184
1292.91	198
1298.45	216
1303.98	230
1309.5	220
1315.02	234
1320.53	292
1326.04	312
1331.54	306
1337.04	292
1342.53	268
1348.02	258
1353.5	262
1358.98	270
1364.45	274
1369.91	284
1375.37	280
1380.82	282
1386.27	250
1391.71	242
1397.15	246
1402.58	240
1408.01	234
1413.43	230
1418.85	232
1424.26	230
1429.66	224
1435.06	246
1440.46	290
1445.85	318
1451.23	336
1456.61	262
1461.98	212
1467.35	190
1472.71	186
1478.07	186
1483.42	168
1488.77	194
1494.11	182
1499.45	178
1504.78	180
1510.11	180
1515.43	172
1520.74	176
1526.05	166
1531.36	170
1536.66	176
1541.95	166
1547.24	158
1552.52	174
1557.8	172
1563.08	168
1568.35	192
1573.61	198
1578.87	278
1584.12	400
1589.37	276
1594.61	316
1599.85	636
1605.08	568
1610.31	284
1615.53	202
1620.75	192
1625.96	168
1631.17	156
1636.37	158
1641.57	162
1646.76	142
1651.95	158
1657.13	142
1662.31	136
1667.48	136
1672.65	146
1677.81	138
1682.97	130
1688.12	136
1693.27	128
1698.41	116
1702.26	116

File: ps-ppo-6jan25-1,0000-map3_Y01_X00.txt
204.377	836
211.048	886
217.712	872
224.369	886
231.019	712
237.661	562
244.297	382
250.924	316
257.546	284
264.16	282
270.766	262
277.365	232
283.958	218
290.543	186
297.121	184
303.693	160
310.256	174
316.813	182
323.362	174
329.905	162
336.441	166
342.969	160
349.491	152
356.006	148
362.513	158
369.014	152
375.508	156
381.994	176
388.473	188
394.947	188
401.412	230
407.871	224
414.323	190
420.768	170
427.206	160
433.637	142
440.062	142
446.479	132
452.89	130
459.293	114
465.691	100
472.081	114
478.463	104
484.84	90
491.21	112
497.573	112
503.929	116
510.279	110
516.621	116
522.957	114
529.287	136
535.609	136
541.925	148
548.234	142
554.536	142
560.832	136
567.12	148
573.403	150
579.679	130
585.948	108
592.211	106
598.466	120
604.715	142
610.958	144
617.194	328
623.424	448
629.647	150
635.864	110
642.074	100
648.276	78
654.473	88
660.664	80
666.847	78
673.025	76
679.195	76
685.36	84
691.517	86
697.669	90
703.814	100
709.953	102
716.085	98
722.21	140
728.33	138
734.443	132
740.549	174
746.65	188
752.743	202
758.831	238
764.912	228
770.986	202
777.055	182
783.117	252
789.173	288
795.222	340
801.265	278
807.302	206
813.333	164
819.357	126
825.376	118
831.387	114
837.392	152
843.392	174
849.386	144
855.372	130
861.353	126
867.328	118
873.296	126
879.258	116
885.214	108
891.164	120
897.108	116
903.046	132
908.977	146
914.903	122
920.822	92
926.735	96
932.643	104
938.543	100
944.439	102
950.328	106
956.21	112
962.088	118
967.958	130
973.824	134
979.682	180
985.534	266
991.382	750
997.222	1184
1003.06	2892
1008.89	454
1014.71	194
1020.53	218
1026.34	486
1032.14	894
1037.94	416
1043.73	180
1049.52	160
1055.3	156
1061.08	164
1066.85	168
1072.61	180
1078.37	166
1084.12	170
1089.87	170
1095.61	172
1101.34	168
1107.07	146
1112.8	122
1118.51	118
1124.22	100
1129.93	120
1135.63	106
1141.32	124
1147.01	160
1152.69	348
1158.37	312
1164.04	222
1169.71	222
1175.37	296
1181.02	512
1186.67	434
1192.31	448
1197.95	506
1203.58	438
1209.2	330
1214.82	238
1220.44	176
1226.05	190
1231.65	176
1237.25	162
1242.84	178
1248.42	168
1254	178
1259.58	162
1265.15	166
1270.71	168
1276.27	160
1281.82	166
1287.37	178
1292.91	200
1298.45	196
1303.98	220
1309.5	224
1315.02	236
1320.53	262
1326.04	274
1331.54	282
1337.04	282
1342.53	270
1348.02	264
1353.5	254
1358.98	266
1364.45	252
1369.91	274
1375.37	264
1380.82	248
1386.27	232
1391.71	214
1397.15	230
1402.58	224
1408.01	228
1413.43	200
1418.85	220
1424.26	206
1429.66	214
1435.06	232
1440.46	280
1445.85	324
1451.23	312
1456.61	250
1461.98	208
1467.35	182
1472.71	164
1478.07	178
1483.42	176
1488.77	166
1494.11	172
1499.45	162
1504.78	170
1510.11	164
1515.43	158
1520.74	164
1526.05	148
1531.36	166
1536.66	156
1541.95	148
1547.24	152
1552.52	152
1557.8	146
1563.08	152
1568.35	174
1573.61	198
1578.87	264
1584.12	392
1589.37	238
1594.61	300
1599.85	590
1605.08	566
1610.31	278
1615.53	202
1620.75	168
1625.96	158
1631.17	136
1636.37	146
1641.57	144
1646.76	142
1651.95	134
1657.13	126
1662.31	138
1667.48	122
1672.65	122
1677.81	124
1682.97	120
1688.12	116
1693.27	132
1698.41	114
1702.26	112