Folder: NRC_SU25_Spectral_Classification/Mixture_Classification/Jesse_Dataset_v2/Pure Raman/Polystyrene/785nm (part 7)

File: ps-ppo-6jan25-1,0000-map3_Y07_X01.txt
204.377	842
211.048	908
217.712	912
224.369	858
231.019	712
237.661	548
244.297	392
250.924	304
257.546	290
264.16	256
270.766	254
277.365	234
283.958	216
290.543	198
297.121	172
303.693	170
310.256	168
316.813	188
323.362	174
329.905	186
336.441	166
342.969	156
349.491	150
356.006	158
362.513	150
369.014	160
375.508	134
381.994	178
388.473	194
394.947	202
401.412	210
407.871	236
414.323	206
420.768	176
427.206	152
433.637	156
440.062	146
446.479	136
452.89	112
459.293	122
465.691	122
472.081	106
478.463	102
484.84	106
491.21	110
497.573	104
503.929	110
510.279	118
516.621	126
522.957	124
529.287	132
535.609	142
541.925	144
548.234	156
554.536	148
560.832	142
567.12	138
573.403	154
579.679	132
585.948	124
592.211	110
598.466	120
604.715	134
610.958	156
617.194	342
623.424	468
629.647	144
635.864	118
642.074	90
648.276	92
654.473	86
660.664	90
666.847	90
673.025	82
679.195	66
685.36	90
691.517	84
697.669	88
703.814	110
709.953	108
716.085	102
722.21	134
728.33	122
734.443	134
740.549	180
746.65	198
752.743	224
758.831	228
764.912	222
770.986	200
777.055	210
783.117	246
789.173	316
795.222	362
801.265	294
807.302	198
813.333	174
819.357	136
825.376	122
831.387	124
837.392	152
843.392	162
849.386	144
855.372	130
861.353	136
867.328	136
873.296	132
879.258	116
885.214	122
891.164	116
897.108	124
903.046	146
908.977	156
914.903	128
920.822	112
926.735	100
932.643	108
938.543	106
944.439	104
950.328	106
956.21	110
962.088	124
967.958	128
973.824	124
979.682	180
985.534	268
991.382	762
997.222	1218
1003.06	2882
1008.89	436
1014.71	194
1020.53	204
1026.34	496
1032.14	866
1037.94	398
1043.73	202
1049.52	178
1055.3	150
1061.08	162
1066.85	184
1072.61	178
1078.37	174
1084.12	162
1089.87	174
1095.61	172
1101.34	168
1107.07	152
1112.8	134
1118.51	126
1124.22	106
1129.93	100
1135.63	112
1141.32	134
1147.01	180
1152.69	360
1158.37	354
1164.04	216
1169.71	216
1175.37	300
1181.02	518
1186.67	432
1192.31	488
1197.95	488
1203.58	416
1209.2	322
1214.82	242
1220.44	210
1226.05	190
1231.65	198
1237.25	176
1242.84	174
1248.42	182
1254	158
1259.58	168
1265.15	164
1270.71	178
1276.27	158
1281.82	182
1287.37	186
1292.91	214
1298.45	198
1303.98	216
1309.5	226
1315.02	252
1320.53	252
1326.04	296
1331.54	294
1337.04	280
1342.53	252
1348.02	268
1353.5	264
1358.98	274
1364.45	246
1369.91	290
1375.37	256
1380.82	246
1386.27	244
1391.71	224
1397.15	218
1402.58	242
1408.01	222
1413.43	230
1418.85	218
1424.26	210
1429.66	222
1435.06	250
1440.46	288
1445.85	328
1451.23	314
1456.61	268
1461.98	206
1467.35	190
1472.71	196
1478.07	182
1483.42	186
1488.77	174
1494.11	166
1499.45	184
1504.78	176
1510.11	160
1515.43	168
1520.74	172
1526.05	156
1531.36	144
1536.66	164
1541.95	142
1547.24	156
1552.52	158
1557.8	154
1563.08	166
1568.35	168
1573.61	194
1578.87	268
1584.12	384
1589.37	236
1594.61	330
1599.85	596
1605.08	554
1610.31	272
1615.53	206
1620.75	166
1625.96	162
1631.17	152
1636.37	144
1641.57	162
1646.76	148
1651.95	140
1657.13	128
1662.31	132
1667.48	142
1672.65	138
1677.81	126
1682.97	114
1688.12	138
1693.27	118
1698.41	120
1702.26	114

File: ps-ppo-6jan25-1,0000-map3_Y07_X02.txt
204.377	832
211.048	872
217.712	928
224.369	878
231.019	730
237.661	550
244.297	380
250.924	302
257.546	282
264.16	270
270.766	246
277.365	228
283.958	202
290.543	196
297.121	158
303.693	168
310.256	176
316.813	170
323.362	160
329.905	174
336.441	162
342.969	160
349.491	156
356.006	162
362.513	142
369.014	144
375.508	160
381.994	172
388.473	182
394.947	194
401.412	200
407.871	238
414.323	192
420.768	172
427.206	158
433.637	134
440.062	130
446.479	132
452.89	118
459.293	106
465.691	102
472.081	98
478.463	90
484.84	94
491.21	94
497.573	108
503.929	114
510.279	104
516.621	110
522.957	100
529.287	118
535.609	136
541.925	142
548.234	148
554.536	142
560.832	136
567.12	128
573.403	138
579.679	120
585.948	100
592.211	104
598.466	110
604.715	120
610.958	142
617.194	320
623.424	458
629.647	140
635.864	100
642.074	92
648.276	82
654.473	80
660.664	80
666.847	74
673.025	74
679.195	74
685.36	76
691.517	72
697.669	90
703.814	90
709.953	96
716.085	90
722.21	130
728.33	130
734.443	138
740.549	192
746.65	190
752.743	214
758.831	240
764.912	220
770.986	186
777.055	190
783.117	246
789.173	306
795.222	366
801.265	278
807.302	198
813.333	164
819.357	128
825.376	116
831.387	124
837.392	138
843.392	162
849.386	132
855.372	132
861.353	122
867.328	106
873.296	122
879.258	118
885.214	114
891.164	118
897.108	122
903.046	140
908.977	134
914.903	114
920.822	104
926.735	94
932.643	94
938.543	106
944.439	100
950.328	96
956.21	108
962.088	118
967.958	126
973.824	140
979.682	184
985.534	262
991.382	766
997.222	1210
1003.06	2874
1008.89	462
1014.71	188
1020.53	232
1026.34	488
1032.14	904
1037.94	424
1043.73	194
1049.52	156
1055.3	148
1061.08	158
1066.85	170
1072.61	184
1078.37	166
1084.12	160
1089.87	158
1095.61	180
1101.34	162
1107.07	140
1112.8	134
1118.51	128
1124.22	114
1129.93	108
1135.63	112
1141.32	126
1147.01	178
1152.69	358
1158.37	348
1164.04	226
1169.71	214
1175.37	310
1181.02	522
1186.67	430
1192.31	480
1197.95	482
1203.58	424
1209.2	338
1214.82	228
1220.44	200
1226.05	208
1231.65	184
1237.25	172
1242.84	172
1248.42	162
1254	164
1259.58	182
1265.15	178
1270.71	174
1276.27	156
1281.82	176
1287.37	176
1292.91	184
1298.45	202
1303.98	208
1309.5	222
1315.02	250
1320.53	282
1326.04	290
1331.54	292
1337.04	274
1342.53	266
1348.02	268
1353.5	266
1358.98	256
1364.45	270
1369.91	278
1375.37	264
1380.82	256
1386.27	256
1391.71	232
1397.15	234
1402.58	212
1408.01	234
1413.43	224
1418.85	208
1424.26	210
1429.66	226
1435.06	244
1440.46	268
1445.85	310
1451.23	314
1456.61	266
1461.98	210
1467.35	194
1472.71	184
1478.07	184
1483.42	170
1488.77	172
1494.11	192
1499.45	176
1504.78	160
1510.11	156
1515.43	160
1520.74	162
1526.05	160
1531.36	150
1536.66	160
1541.95	158
1547.24	158
1552.52	162
1557.8	166
1563.08	170
1568.35	172
1573.61	190
1578.87	274
1584.12	398
1589.37	244
1594.61	312
1599.85	620
1605.08	540
1610.31	282
1615.53	192
1620.75	172
1625.96	150
1631.17	140
1636.37	152
1641.57	154
1646.76	158
1651.95	142
1657.13	144
1662.31	118
1667.48	136
1672.65	120
1677.81	128
1682.97	122
1688.12	122
1693.27	124
1698.41	120
1702.26	118

File: ps-ppo-6jan25-1,0000-map3_Y07_X03.txt
204.377	856
211.048	892
217.712	938
224.369	900
231.019	752
237.661	570
244.297	390
250.924	330
257.546	300
264.16	284
270.766	268
277.365	258
283.958	228
290.543	204
297.121	188
303.693	176
310.256	178
316.813	190
323.362	190
329.905	194
336.441	196
342.969	188
349.491	178
356.006	172
362.513	176
369.014	158
375.508	182
381.994	186
388.473	210
394.947	224
401.412	224
407.871	264
414.323	214
420.768	202
427.206	182
433.637	166
440.062	164
446.479	160
452.89	140
459.293	136
465.691	144
472.081	140
478.463	134
484.84	122
491.21	130
497.573	136
503.929	148
510.279	138
516.621	128
522.957	150
529.287	154
535.609	172
541.925	168
548.234	160
554.536	168
560.832	170
567.12	156
573.403	162
579.679	150
585.948	132
592.211	128
598.466	138
604.715	158
610.958	160
617.194	372
623.424	484
629.647	174
635.864	130
642.074	118
648.276	110
654.473	102
660.664	106
666.847	106
673.025	104
679.195	98
685.36	96
691.517	102
697.669	104
703.814	122
709.953	120
716.085	120
722.21	142
728.33	152
734.443	154
740.549	192
746.65	214
752.743	218
758.831	240
764.912	254
770.986	210
777.055	216
783.117	252
789.173	324
795.222	362
801.265	302
807.302	206
813.333	176
819.357	136
825.376	126
831.387	128
837.392	148
843.392	172
849.386	154
855.372	128
861.353	132
867.328	136
873.296	140
879.258	124
885.214	126
891.164	126
897.108	124
903.046	160
908.977	146
914.903	128
920.822	112
926.735	112
932.643	106
938.543	106
944.439	110
950.328	110
956.21	116
962.088	130
967.958	134
973.824	142
979.682	192
985.534	274
991.382	786
997.222	1224
1003.06	2924
1008.89	454
1014.71	192
1020.53	216
1026.34	508
1032.14	900
1037.94	412
1043.73	226
1049.52	164
1055.3	156
1061.08	164
1066.85	184
1072.61	182
1078.37	172
1084.12	160
1089.87	174
1095.61	162
1101.34	166
1107.07	142
1112.8	134
1118.51	128
1124.22	106
1129.93	114
1135.63	120
1141.32	144
1147.01	176
1152.69	348
1158.37	336
1164.04	208
1169.71	210
1175.37	308
1181.02	532
1186.67	440
1192.31	474
1197.95	488
1203.58	444
1209.2	324
1214.82	236
1220.44	218
1226.05	190
1231.65	174
1237.25	162
1242.84	166
1248.42	174
1254	164
1259.58	162
1265.15	182
1270.71	174
1276.27	170
1281.82	178
1287.37	182
1292.91	194
1298.45	210
1303.98	212
1309.5	238
1315.02	228
1320.53	270
1326.04	300
1331.54	288
1337.04	280
1342.53	274
1348.02	272
1353.5	262
1358.98	278
1364.45	268
1369.91	282
1375.37	268
1380.82	256
1386.27	246
1391.71	236
1397.15	234
1402.58	236
1408.01	234
1413.43	224
1418.85	204
1424.26	214
1429.66	216
1435.06	240
1440.46	280
1445.85	328
1451.23	326
1456.61	266
1461.98	222
1467.35	194
1472.71	184
1478.07	180
1483.42	180
1488.77	170
1494.11	200
1499.45	166
1504.78	170
1510.11	166
1515.43	170
1520.74	160
1526.05	160
1531.36	152
1536.66	162
1541.95	154
1547.24	162
1552.52	156
1557.8	160
1563.08	162
1568.35	178
1573.61	204
1578.87	284
1584.12	394
1589.37	258
1594.61	300
1599.85	620
1605.08	538
1610.31	278
1615.53	218
1620.75	172
1625.96	160
1631.17	152
1636.37	154
1641.57	154
1646.76	156
1651.95	150
1657.13	144
1662.31	138
1667.48	130
1672.65	124
1677.81	138
1682.97	138
1688.12	120
1693.27	112
1698.41	132
1702.26	122

File: ps-ppo-6jan25-1,0000-map3_Y07_X04.txt
204.377	852
211.048	872
217.712	924
224.369	878
231.019	740
237.661	566
244.297	390
250.924	322
257.546	284
264.16	270
270.766	262
277.365	258
283.958	226
290.543	208
297.121	176
303.693	184
310.256	180
316.813	196
323.362	164
329.905	190
336.441	192
342.969	178
349.491	170
356.006	172
362.513	166
369.014	170
375.508	158
381.994	176
388.473	212
394.947	214
401.412	232
407.871	264
414.323	222
420.768	190
427.206	166
433.637	168
440.062	162
446.479	156
452.89	136
459.293	132
465.691	128
472.081	138
478.463	124
484.84	120
491.21	128
497.573	122
503.929	144
510.279	134
516.621	124
522.957	138
529.287	148
535.609	168
541.925	178
548.234	146
554.536	152
560.832	160
567.12	168
573.403	170
579.679	144
585.948	124
592.211	132
598.466	134
604.715	154
610.958	160
617.194	348
623.424	484
629.647	176
635.864	132
642.074	118
648.276	106
654.473	102
660.664	84
666.847	84
673.025	96
679.195	92
685.36	98
691.517	98
697.669	104
703.814	116
709.953	114
716.085	114
722.21	132
728.33	144
734.443	154
740.549	188
746.65	206
752.743	218
758.831	240
764.912	240
770.986	222
777.055	202
783.117	254
789.173	324
795.222	346
801.265	294
807.302	208
813.333	182
819.357	130
825.376	120
831.387	128
837.392	160
843.392	160
849.386	154
855.372	136
861.353	140
867.328	130
873.296	130
879.258	126
885.214	118
891.164	120
897.108	132
903.046	144
908.977	148
914.903	118
920.822	116
926.735	98
932.643	104
938.543	106
944.439	102
950.328	108
956.21	112
962.088	128
967.958	138
973.824	138
979.682	190
985.534	280
991.382	780
997.222	1208
1003.06	2930
1008.89	440
1014.71	196
1020.53	238
1026.34	506
1032.14	902
1037.94	386
1043.73	214
1049.52	160
1055.3	142
1061.08	162
1066.85	174
1072.61	180
1078.37	188
1084.12	166
1089.87	170
1095.61	176
1101.34	162
1107.07	156
1112.8	134
1118.51	120
1124.22	106
1129.93	112
1135.63	124
1141.32	130
1147.01	180
1152.69	358
1158.37	362
1164.04	212
1169.71	216
1175.37	298
1181.02	530
1186.67	440
1192.31	500
1197.95	504
1203.58	454
1209.2	330
1214.82	240
1220.44	210
1226.05	198
1231.65	182
1237.25	178
1242.84	174
1248.42	172
1254	166
1259.58	168
1265.15	170
1270.71	176
1276.27	182
1281.82	180
1287.37	204
1292.91	200
1298.45	192
1303.98	208
1309.5	240
1315.02	254
1320.53	272
1326.04	310
1331.54	286
1337.04	284
1342.53	270
1348.02	274
1353.5	270
1358.98	260
1364.45	272
1369.91	272
1375.37	270
1380.82	266
1386.27	244
1391.71	240
1397.15	232
1402.58	224
1408.01	212
1413.43	220
1418.85	212
1424.26	218
1429.66	236
1435.06	242
1440.46	272
1445.85	326
1451.23	320
1456.61	278
1461.98	218
1467.35	198
1472.71	182
1478.07	186
1483.42	180
1488.77	182
1494.11	184
1499.45	178
1504.78	180
1510.11	164
1515.43	166
1520.74	162
1526.05	150
1531.36	166
1536.66	162
1541.95	170
1547.24	160
1552.52	176
1557.8	154
1563.08	174
1568.35	182
1573.61	202
1578.87	274
1584.12	410
1589.37	250
1594.61	310
1599.85	604
1605.08	558
1610.31	274
1615.53	206
1620.75	178
1625.96	162
1631.17	148
1636.37	150
1641.57	144
1646.76	162
1651.95	148
1657.13	138
1662.31	138
1667.48	128
1672.65	132
1677.81	134
1682.97	128
1688.12	122
1693.27	114
1698.41	120
1702.26	118

File: ps-ppo-6jan25-1,0000-map3_Y07_X06.txt
204.377	844
211.048	900
217.712	942
224.369	878
231.019	782
237.661	548
244.297	412
250.924	304
257.546	280
264.16	246
270.766	254
277.365	252
283.958	222
290.543	192
297.121	176
303.693	188
310.256	192
316.813	186
323.362	194
329.905	178
336.441	178
342.969	166
349.491	164
356.006	160
362.513	162
369.014	176
375.508	182
381.994	178
388.473	208
394.947	202
401.412	228
407.871	242
414.323	212
420.768	190
427.206	158
433.637	146
440.062	142
446.479	134
452.89	134
459.293	122
465.691	122
472.081	116
478.463	110
484.84	114
491.21	118
497.573	106
503.929	118
510.279	116
516.621	110
522.957	126
529.287	128
535.609	142
541.925	160
548.234	150
554.536	150
560.832	154
567.12	148
573.403	152
579.679	124
585.948	118
592.211	116
598.466	116
604.715	152
610.958	166
617.194	330
623.424	468
629.647	148
635.864	112
642.074	88
648.276	90
654.473	86
660.664	88
666.847	86
673.025	88
679.195	82
685.36	90
691.517	84
697.669	88
703.814	108
709.953	112
716.085	94
722.21	140
728.33	130
734.443	140
740.549	192
746.65	188
752.743	222
758.831	232
764.912	216
770.986	210
777.055	206
783.117	254
789.173	308
795.222	344
801.265	282
807.302	212
813.333	168
819.357	138
825.376	124
831.387	120
837.392	142
843.392	152
849.386	136
855.372	130
861.353	130
867.328	116
873.296	128
879.258	108
885.214	116
891.164	114
897.108	122
903.046	150
908.977	148
914.903	116
920.822	108
926.735	96
932.643	98
938.543	100
944.439	110
950.328	100
956.21	118
962.088	134
967.958	140
973.824	140
979.682	172
985.534	262
991.382	804
997.222	1236
1003.06	2820
1008.89	444
1014.71	204
1020.53	226
1026.34	496
1032.14	922
1037.94	390
1043.73	216
1049.52	170
1055.3	146
1061.08	164
1066.85	174
1072.61	180
1078.37	178
1084.12	176
1089.87	176
1095.61	178
1101.34	176
1107.07	154
1112.8	134
1118.51	128
1124.22	104
1129.93	112
1135.63	118
1141.32	134
1147.01	186
1152.69	360
1158.37	346
1164.04	230
1169.71	226
1175.37	302
1181.02	532
1186.67	432
1192.31	482
1197.95	528
1203.58	446
1209.2	324
1214.82	248
1220.44	208
1226.05	200
1231.65	186
1237.25	180
1242.84	162
1248.42	160
1254	176
1259.58	182
1265.15	174
1270.71	184
1276.27	170
1281.82	170
1287.37	182
1292.91	188
1298.45	214
1303.98	216
1309.5	232
1315.02	242
1320.53	288
1326.04	302
1331.54	290
1337.04	288
1342.53	276
1348.02	270
1353.5	278
1358.98	284
1364.45	302
1369.91	292
1375.37	286
1380.82	266
1386.27	258
1391.71	224
1397.15	228
1402.58	236
1408.01	246
1413.43	228
1418.85	226
1424.26	232
1429.66	218
1435.06	250
1440.46	306
1445.85	310
1451.23	328
1456.61	286
1461.98	224
1467.35	192
1472.71	186
1478.07	200
1483.42	170
1488.77	196
1494.11	204
1499.45	178
1504.78	174
1510.11	178
1515.43	168
1520.74	184
1526.05	172
1531.36	174
1536.66	156
1541.95	170
1547.24	170
1552.52	164
1557.8	172
1563.08	164
1568.35	180
1573.61	196
1578.87	272
1584.12	394
1589.37	264
1594.61	322
1599.85	622
1605.08	568
1610.31	278
1615.53	208
1620.75	184
1625.96	172
1631.17	154
1636.37	168
1641.57	154
1646.76	154
1651.95	154
1657.13	142
1662.31	138
1667.48	142
1672.65	144
1677.81	136
1682.97	136
1688.12	140
1693.27	124
1698.41	120
1702.26	120

File: ps-ppo-6jan25-1,0000-map3_Y07_X07.txt
204.377	806
211.048	884
217.712	912
224.369	868
231.019	682
237.661	532
244.297	388
250.924	308
257.546	266
264.16	266
270.766	250
277.365	234
283.958	222
290.543	190
297.121	176
303.693	162
310.256	160
316.813	160
323.362	168
329.905	172
336.441	168
342.969	158
349.491	166
356.006	146
362.513	158
369.014	142
375.508	168
381.994	170
388.473	172
394.947	198
401.412	216
407.871	250
414.323	196
420.768	176
427.206	162
433.637	156
440.062	134
446.479	130
452.89	118
459.293	110
465.691	116
472.081	110
478.463	98
484.84	100
491.21	92
497.573	102
503.929	110
510.279	106
516.621	108
522.957	110
529.287	128
535.609	144
541.925	150
548.234	136
554.536	140
560.832	142
567.12	130
573.403	132
579.679	122
585.948	104
592.211	114
598.466	112
604.715	128
610.958	146
617.194	318
623.424	468
629.647	164
635.864	104
642.074	98
648.276	78
654.473	84
660.664	74
666.847	80
673.025	72
679.195	76
685.36	76
691.517	70
697.669	90
703.814	104
709.953	90
716.085	96
722.21	134
728.33	124
734.443	132
740.549	178
746.65	180
752.743	204
758.831	230
764.912	212
770.986	206
777.055	190
783.117	244
789.173	314
795.222	344
801.265	278
807.302	192
813.333	168
819.357	130
825.376	112
831.387	120
837.392	146
843.392	154
849.386	132
855.372	120
861.353	120
867.328	128
873.296	122
879.258	118
885.214	114
891.164	114
897.108	120
903.046	146
908.977	136
914.903	118
920.822	98
926.735	100
932.643	96
938.543	90
944.439	102
950.328	102
956.21	94
962.088	120
967.958	134
973.824	140
979.682	184
985.534	270
991.382	802
997.222	1236
1003.06	2830
1008.89	444
1014.71	204
1020.53	224
1026.34	504
1032.14	892
1037.94	412
1043.73	204
1049.52	162
1055.3	156
1061.08	160
1066.85	178
1072.61	166
1078.37	158
1084.12	168
1089.87	170
1095.61	170
1101.34	162
1107.07	144
1112.8	132
1118.51	120
1124.22	114
1129.93	110
1135.63	112
1141.32	144
1147.01	170
1152.69	352
1158.37	356
1164.04	216
1169.71	222
1175.37	320
1181.02	534
1186.67	446
1192.31	476
1197.95	504
1203.58	456
1209.2	322
1214.82	216
1220.44	190
1226.05	196
1231.65	174
1237.25	166
1242.84	174
1248.42	162
1254	168
1259.58	166
1265.15	180
1270.71	160
1276.27	178
1281.82	182
1287.37	204
1292.91	200
1298.45	210
1303.98	206
1309.5	226
1315.02	242
1320.53	264
1326.04	304
1331.54	306
1337.04	282
1342.53	278
1348.02	264
1353.5	284
1358.98	268
1364.45	288
1369.91	286
1375.37	272
1380.82	276
1386.27	252
1391.71	262
1397.15	246
1402.58	254
1408.01	232
1413.43	234
1418.85	236
1424.26	226
1429.66	220
1435.06	260
1440.46	286
1445.85	308
1451.23	308
1456.61	272
1461.98	214
1467.35	206
1472.71	182
1478.07	186
1483.42	186
1488.77	174
1494.11	176
1499.45	172
1504.78	176
1510.11	164
1515.43	170
1520.74	170
1526.05	168
1531.36	162
1536.66	170
1541.95	164
1547.24	168
1552.52	164
1557.8	166
1563.08	172
1568.35	176
1573.61	192
1578.87	270
1584.12	400
1589.37	254
1594.61	312
1599.85	622
1605.08	560
1610.31	268
1615.53	206
1620.75	172
1625.96	158
1631.17	162
1636.37	158
1641.57	144
1646.76	156
1651.95	148
1657.13	144
1662.31	132
1667.48	122
1672.65	140
1677.81	126
1682.97	130
1688.12	118
1693.27	134
1698.41	122
1702.26	122

File: ps-ppo-6jan25-1,0000-map3_Y07_X08.txt
204.377	850
211.048	900
217.712	924
224.369	884
231.019	714
237.661	558
244.297	394
250.924	330
257.546	288
264.16	270
270.766	230
277.365	252
283.958	222
290.543	192
297.121	182
303.693	174
310.256	152
316.813	172
323.362	172
329.905	184
336.441	166
342.969	164
349.491	160
356.006	160
362.513	140
369.014	158
375.508	160
381.994	168
388.473	184
394.947	198
401.412	226
407.871	254
414.323	198
420.768	172
427.206	164
433.637	136
440.062	138
446.479	130
452.89	114
459.293	114
465.691	114
472.081	116
478.463	110
484.84	90
491.21	100
497.573	114
503.929	108
510.279	118
516.621	116
522.957	112
529.287	122
535.609	146
541.925	156
548.234	136
554.536	142
560.832	138
567.12	128
573.403	138
579.679	126
585.948	112
592.211	116
598.466	112
604.715	146
610.958	148
617.194	312
623.424	462
629.647	140
635.864	118
642.074	84
648.276	84
654.473	78
660.664	84
666.847	74
673.025	80
679.195	76
685.36	72
691.517	76
697.669	84
703.814	104
709.953	96
716.085	96
722.21	140
728.33	114
734.443	140
740.549	182
746.65	192
752.743	206
758.831	262
764.912	216
770.986	206
777.055	200
783.117	250
789.173	300
795.222	342
801.265	296
807.302	188
813.333	164
819.357	126
825.376	124
831.387	118
837.392	152
843.392	152
849.386	132
855.372	142
861.353	118
867.328	122
873.296	134
879.258	114
885.214	116
891.164	116
897.108	118
903.046	146
908.977	138
914.903	118
920.822	104
926.735	96
932.643	104
938.543	98
944.439	96
950.328	98
956.21	92
962.088	114
967.958	134
973.824	140
979.682	184
985.534	280
991.382	786
997.222	1258
1003.06	2850
1008.89	440
1014.71	176
1020.53	232
1026.34	514
1032.14	886
1037.94	410
1043.73	214
1049.52	166
1055.3	160
1061.08	154
1066.85	188
1072.61	174
1078.37	182
1084.12	156
1089.87	160
1095.61	170
1101.34	154
1107.07	140
1112.8	126
1118.51	124
1124.22	104
1129.93	114
1135.63	108
1141.32	140
1147.01	170
1152.69	354
1158.37	348
1164.04	210
1169.71	222
1175.37	322
1181.02	520
1186.67	436
1192.31	480
1197.95	496
1203.58	454
1209.2	322
1214.82	242
1220.44	198
1226.05	200
1231.65	188
1237.25	174
1242.84	178
1248.42	178
1254	170
1259.58	170
1265.15	176
1270.71	170
1276.27	168
1281.82	176
1287.37	196
1292.91	206
1298.45	212
1303.98	216
1309.5	244
1315.02	246
1320.53	266
1326.04	300
1331.54	316
1337.04	284
1342.53	272
1348.02	274
1353.5	288
1358.98	286
1364.45	282
1369.91	296
1375.37	274
1380.82	270
1386.27	248
1391.71	258
1397.15	264
1402.58	244
1408.01	236
1413.43	238
1418.85	234
1424.26	238
1429.66	234
1435.06	270
1440.46	306
1445.85	332
1451.23	334
1456.61	286
1461.98	214
1467.35	194
1472.71	192
1478.07	188
1483.42	198
1488.77	196
1494.11	196
1499.45	192
1504.78	172
1510.11	180
1515.43	166
1520.74	170
1526.05	188
1531.36	170
1536.66	162
1541.95	168
1547.24	168
1552.52	162
1557.8	166
1563.08	180
1568.35	184
1573.61	204
1578.87	288
1584.12	384
1589.37	246
1594.61	324
1599.85	622
1605.08	546
1610.31	278
1615.53	200
1620.75	180
1625.96	172
1631.17	164
1636.37	156
1641.57	158
1646.76	170
1651.95	146
1657.13	142
1662.31	138
1667.48	140
1672.65	136
1677.81	136
1682.97	134
1688.12	130
1693.27	116
1698.41	130
1702.26	118

File: ps-ppo-6jan25-1,0000-map3_Y07_X10.txt
204.377	844
211.048	884
217.712	876
224.369	884
231.019	734
237.661	524
244.297	386
250.924	312
257.546	282
264.16	254
270.766	258
277.365	228
283.958	220
290.543	182
297.121	170
303.693	174
310.256	182
316.813	168
323.362	170
329.905	182
336.441	172
342.969	154
349.491	154
356.006	136
362.513	162
369.014	160
375.508	154
381.994	178
388.473	196
394.947	192
401.412	222
407.871	234
414.323	202
420.768	172
427.206	152
433.637	140
440.062	148
446.479	134
452.89	116
459.293	114
465.691	114
472.081	108
478.463	104
484.84	102
491.21	100
497.573	100
503.929	106
510.279	96
516.621	110
522.957	118
529.287	116
535.609	134
541.925	146
548.234	146
554.536	136
560.832	138
567.12	136
573.403	140
579.679	128
585.948	114
592.211	112
598.466	110
604.715	136
610.958	152
617.194	344
623.424	468
629.647	146
635.864	100
642.074	92
648.276	76
654.473	78
660.664	76
666.847	80
673.025	76
679.195	82
685.36	82
691.517	82
697.669	98
703.814	100
709.953	98
716.085	98
722.21	132
728.33	132
734.443	130
740.549	182
746.65	176
752.743	198
758.831	222
764.912	228
770.986	206
777.055	212
783.117	240
789.173	308
795.222	350
801.265	278
807.302	206
813.333	166
819.357	126
825.376	116
831.387	110
837.392	144
843.392	142
849.386	128
855.372	136
861.353	116
867.328	124
873.296	134
879.258	110
885.214	112
891.164	110
897.108	124
903.046	158
908.977	136
914.903	124
920.822	108
926.735	102
932.643	88
938.543	98
944.439	98
950.328	106
956.21	104
962.088	128
967.958	130
973.824	128
979.682	188
985.534	302
991.382	828
997.222	1220
1003.06	2848
1008.89	440
1014.71	180
1020.53	224
1026.34	500
1032.14	892
1037.94	412
1043.73	222
1049.52	172
1055.3	146
1061.08	164
1066.85	170
1072.61	172
1078.37	168
1084.12	154
1089.87	172
1095.61	168
1101.34	162
1107.07	144
1112.8	140
1118.51	120
1124.22	112
1129.93	114
1135.63	116
1141.32	136
1147.01	166
1152.69	354
1158.37	336
1164.04	208
1169.71	224
1175.37	310
1181.02	530
1186.67	450
1192.31	478
1197.95	512
1203.58	432
1209.2	328
1214.82	240
1220.44	222
1226.05	192
1231.65	166
1237.25	174
1242.84	176
1248.42	164
1254	174
1259.58	170
1265.15	172
1270.71	182
1276.27	180
1281.82	176
1287.37	188
1292.91	202
1298.45	216
1303.98	228
1309.5	242
1315.02	258
1320.53	286
1326.04	312
1331.54	316
1337.04	272
1342.53	272
1348.02	274
1353.5	286
1358.98	282
1364.45	284
1369.91	278
1375.37	290
1380.82	280
1386.27	278
1391.71	256
1397.15	262
1402.58	238
1408.01	244
1413.43	228
1418.85	224
1424.26	236
1429.66	240
1435.06	238
1440.46	292
1445.85	342
1451.23	324
1456.61	286
1461.98	222
1467.35	204
1472.71	196
1478.07	200
1483.42	190
1488.77	186
1494.11	198
1499.45	190
1504.78	174
1510.11	178
1515.43	172
1520.74	176
1526.05	180
1531.36	164
1536.66	164
1541.95	164
1547.24	166
1552.52	178
1557.8	168
1563.08	188
1568.35	186
1573.61	194
1578.87	284
1584.12	396
1589.37	262
1594.61	306
1599.85	632
1605.08	576
1610.31	288
1615.53	204
1620.75	170
1625.96	174
1631.17	156
1636.37	144
1641.57	148
1646.76	158
1651.95	158
1657.13	134
1662.31	138
1667.48	136
1672.65	140
1677.81	134
1682.97	142
1688.12	126
1693.27	134
1698.41	120
1702.26	126