Folder: NRC_SU25_Spectral_Classification/Mixture_Classification/Jesse_Dataset_v2/Pure Raman/Polystyrene/785nm (part 3)

File: ps-ppo-6jan25-1,0000-map3_Y02_X02.txt
204.377	822
211.048	874
217.712	902
224.369	866
231.019	718
237.661	536
244.297	376
250.924	300
257.546	280
264.16	238
270.766	234
277.365	236
283.958	200
290.543	196
297.121	184
303.693	164
310.256	176
316.813	162
323.362	168
329.905	166
336.441	162
342.969	156
349.491	136
356.006	144
362.513	142
369.014	154
375.508	156
381.994	164
388.473	190
394.947	186
401.412	208
407.871	218
414.323	194
420.768	158
427.206	142
433.637	132
440.062	138
446.479	120
452.89	120
459.293	98
465.691	102
472.081	102
478.463	98
484.84	92
491.21	98
497.573	102
503.929	112
510.279	100
516.621	108
522.957	110
529.287	118
535.609	138
541.925	136
548.234	130
554.536	132
560.832	138
567.12	134
573.403	144
579.679	116
585.948	102
592.211	106
598.466	114
604.715	126
610.958	134
617.194	322
623.424	438
629.647	140
635.864	102
642.074	88
648.276	78
654.473	76
660.664	70
666.847	72
673.025	74
679.195	86
685.36	64
691.517	78
697.669	82
703.814	92
709.953	90
716.085	94
722.21	136
728.33	130
734.443	132
740.549	170
746.65	188
752.743	218
758.831	230
764.912	222
770.986	190
777.055	194
783.117	236
789.173	312
795.222	344
801.265	256
807.302	198
813.333	152
819.357	120
825.376	108
831.387	114
837.392	146
843.392	148
849.386	134
855.372	104
861.353	120
867.328	126
873.296	124
879.258	126
885.214	106
891.164	110
897.108	120
903.046	132
908.977	138
914.903	118
920.822	92
926.735	106
932.643	90
938.543	94
944.439	100
950.328	100
956.21	98
962.088	122
967.958	120
973.824	144
979.682	186
985.534	278
991.382	724
997.222	1190
1003.06	2924
1008.89	440
1014.71	180
1020.53	212
1026.34	514
1032.14	888
1037.94	420
1043.73	194
1049.52	168
1055.3	160
1061.08	142
1066.85	160
1072.61	182
1078.37	170
1084.12	160
1089.87	162
1095.61	178
1101.34	164
1107.07	144
1112.8	126
1118.51	116
1124.22	108
1129.93	98
1135.63	110
1141.32	136
1147.01	184
1152.69	344
1158.37	324
1164.04	204
1169.71	212
1175.37	294
1181.02	540
1186.67	438
1192.31	474
1197.95	514
1203.58	430
1209.2	318
1214.82	216
1220.44	200
1226.05	204
1231.65	170
1237.25	168
1242.84	164
1248.42	162
1254	168
1259.58	154
1265.15	174
1270.71	168
1276.27	160
1281.82	164
1287.37	180
1292.91	190
1298.45	208
1303.98	212
1309.5	216
1315.02	242
1320.53	272
1326.04	302
1331.54	274
1337.04	280
1342.53	264
1348.02	246
1353.5	250
1358.98	256
1364.45	258
1369.91	280
1375.37	272
1380.82	250
1386.27	234
1391.71	226
1397.15	212
1402.58	224
1408.01	214
1413.43	222
1418.85	214
1424.26	204
1429.66	218
1435.06	266
1440.46	286
1445.85	306
1451.23	306
1456.61	252
1461.98	186
1467.35	174
1472.71	188
1478.07	176
1483.42	176
1488.77	144
1494.11	174
1499.45	170
1504.78	162
1510.11	156
1515.43	160
1520.74	162
1526.05	150
1531.36	156
1536.66	164
1541.95	154
1547.24	156
1552.52	156
1557.8	144
1563.08	152
1568.35	172
1573.61	190
1578.87	262
1584.12	400
1589.37	264
1594.61	306
1599.85	610
1605.08	556
1610.31	254
1615.53	192
1620.75	176
1625.96	160
1631.17	160
1636.37	146
1641.57	148
1646.76	156
1651.95	138
1657.13	128
1662.31	120
1667.48	136
1672.65	130
1677.81	134
1682.97	124
1688.12	126
1693.27	114
1698.41	124
1702.26	112

File: ps-ppo-6jan25-1,0000-map3_Y02_X03.txt
204.377	856
211.048	892
217.712	892
224.369	922
231.019	736
237.661	550
244.297	370
250.924	314
257.546	278
264.16	272
270.766	260
277.365	222
283.958	212
290.543	190
297.121	186
303.693	176
310.256	178
316.813	178
323.362	178
329.905	170
336.441	166
342.969	172
349.491	152
356.006	154
362.513	150
369.014	162
375.508	156
381.994	180
388.473	178
394.947	178
401.412	212
407.871	224
414.323	188
420.768	164
427.206	158
433.637	142
440.062	134
446.479	138
452.89	120
459.293	116
465.691	110
472.081	116
478.463	98
484.84	88
491.21	102
497.573	102
503.929	102
510.279	114
516.621	108
522.957	116
529.287	128
535.609	150
541.925	148
548.234	144
554.536	132
560.832	136
567.12	126
573.403	130
579.679	126
585.948	112
592.211	112
598.466	106
604.715	128
610.958	144
617.194	332
623.424	474
629.647	146
635.864	102
642.074	86
648.276	86
654.473	78
660.664	78
666.847	80
673.025	72
679.195	70
685.36	78
691.517	76
697.669	82
703.814	96
709.953	100
716.085	102
722.21	130
728.33	150
734.443	136
740.549	162
746.65	184
752.743	202
758.831	236
764.912	208
770.986	190
777.055	202
783.117	246
789.173	330
795.222	342
801.265	290
807.302	192
813.333	156
819.357	130
825.376	106
831.387	118
837.392	142
843.392	162
849.386	138
855.372	118
861.353	114
867.328	132
873.296	120
879.258	120
885.214	106
891.164	108
897.108	120
903.046	142
908.977	142
914.903	118
920.822	104
926.735	108
932.643	94
938.543	100
944.439	114
950.328	108
956.21	108
962.088	118
967.958	134
973.824	136
979.682	198
985.534	268
991.382	762
997.222	1238
1003.06	2874
1008.89	478
1014.71	210
1020.53	232
1026.34	496
1032.14	902
1037.94	398
1043.73	220
1049.52	164
1055.3	156
1061.08	164
1066.85	168
1072.61	162
1078.37	176
1084.12	172
1089.87	180
1095.61	166
1101.34	154
1107.07	126
1112.8	132
1118.51	124
1124.22	112
1129.93	108
1135.63	110
1141.32	126
1147.01	176
1152.69	362
1158.37	362
1164.04	218
1169.71	214
1175.37	306
1181.02	510
1186.67	426
1192.31	496
1197.95	492
1203.58	438
1209.2	324
1214.82	230
1220.44	214
1226.05	190
1231.65	178
1237.25	166
1242.84	178
1248.42	164
1254	172
1259.58	166
1265.15	170
1270.71	170
1276.27	166
1281.82	178
1287.37	172
1292.91	194
1298.45	208
1303.98	218
1309.5	228
1315.02	236
1320.53	258
1326.04	296
1331.54	294
1337.04	270
1342.53	256
1348.02	262
1353.5	264
1358.98	276
1364.45	256
1369.91	276
1375.37	276
1380.82	256
1386.27	248
1391.71	234
1397.15	214
1402.58	228
1408.01	242
1413.43	214
1418.85	226
1424.26	194
1429.66	220
1435.06	246
1440.46	266
1445.85	326
1451.23	328
1456.61	270
1461.98	198
1467.35	178
1472.71	180
1478.07	182
1483.42	178
1488.77	188
1494.11	182
1499.45	168
1504.78	162
1510.11	172
1515.43	166
1520.74	164
1526.05	168
1531.36	148
1536.66	168
1541.95	158
1547.24	162
1552.52	160
1557.8	148
1563.08	180
1568.35	172
1573.61	182
1578.87	266
1584.12	400
1589.37	260
1594.61	302
1599.85	612
1605.08	570
1610.31	290
1615.53	186
1620.75	178
1625.96	168
1631.17	148
1636.37	146
1641.57	154
1646.76	152
1651.95	132
1657.13	138
1662.31	134
1667.48	124
1672.65	128
1677.81	118
1682.97	136
1688.12	128
1693.27	120
1698.41	122
1702.26	122

File: ps-ppo-6jan25-1,0000-map3_Y02_X07.txt
204.377	824
211.048	904
217.712	910
224.369	862
231.019	738
237.661	540
244.297	392
250.924	310
257.546	278
264.16	268
270.766	240
277.365	244
283.958	216
290.543	186
297.121	162
303.693	154
310.256	170
316.813	164
323.362	168
329.905	158
336.441	164
342.969	158
349.491	150
356.006	140
362.513	146
369.014	154
375.508	148
381.994	172
388.473	182
394.947	184
401.412	218
407.871	228
414.323	184
420.768	162
427.206	158
433.637	132
440.062	122
446.479	126
452.89	112
459.293	106
465.691	106
472.081	102
478.463	104
484.84	92
491.21	96
497.573	98
503.929	108
510.279	104
516.621	104
522.957	110
529.287	120
535.609	132
541.925	146
548.234	142
554.536	140
560.832	130
567.12	130
573.403	148
579.679	116
585.948	102
592.211	106
598.466	110
604.715	124
610.958	148
617.194	328
623.424	474
629.647	138
635.864	110
642.074	80
648.276	76
654.473	76
660.664	72
666.847	74
673.025	70
679.195	70
685.36	78
691.517	80
697.669	88
703.814	98
709.953	94
716.085	94
722.21	128
728.33	126
734.443	130
740.549	180
746.65	176
752.743	202
758.831	260
764.912	216
770.986	204
777.055	194
783.117	238
789.173	318
795.222	326
801.265	276
807.302	184
813.333	154
819.357	124
825.376	112
831.387	120
837.392	144
843.392	174
849.386	138
855.372	138
861.353	126
867.328	126
873.296	118
879.258	118
885.214	108
891.164	104
897.108	124
903.046	134
908.977	146
914.903	108
920.822	98
926.735	94
932.643	100
938.543	104
944.439	102
950.328	108
956.21	104
962.088	120
967.958	136
973.824	126
979.682	188
985.534	278
991.382	754
997.222	1218
1003.06	2824
1008.89	458
1014.71	198
1020.53	212
1026.34	478
1032.14	940
1037.94	414
1043.73	220
1049.52	166
1055.3	158
1061.08	150
1066.85	170
1072.61	180
1078.37	164
1084.12	162
1089.87	158
1095.61	168
1101.34	176
1107.07	148
1112.8	126
1118.51	118
1124.22	114
1129.93	100
1135.63	106
1141.32	134
1147.01	166
1152.69	354
1158.37	352
1164.04	218
1169.71	224
1175.37	292
1181.02	522
1186.67	434
1192.31	470
1197.95	494
1203.58	454
1209.2	314
1214.82	228
1220.44	200
1226.05	206
1231.65	180
1237.25	176
1242.84	170
1248.42	160
1254	164
1259.58	162
1265.15	158
1270.71	178
1276.27	162
1281.82	172
1287.37	184
1292.91	196
1298.45	210
1303.98	212
1309.5	230
1315.02	250
1320.53	278
1326.04	286
1331.54	304
1337.04	276
1342.53	262
1348.02	268
1353.5	258
1358.98	258
1364.45	262
1369.91	274
1375.37	270
1380.82	276
1386.27	246
1391.71	248
1397.15	232
1402.58	242
1408.01	232
1413.43	218
1418.85	224
1424.26	230
1429.66	228
1435.06	232
1440.46	272
1445.85	332
1451.23	330
1456.61	272
1461.98	218
1467.35	194
1472.71	182
1478.07	188
1483.42	174
1488.77	176
1494.11	182
1499.45	180
1504.78	156
1510.11	164
1515.43	166
1520.74	166
1526.05	158
1531.36	160
1536.66	152
1541.95	162
1547.24	160
1552.52	156
1557.8	150
1563.08	158
1568.35	176
1573.61	202
1578.87	270
1584.12	382
1589.37	248
1594.61	312
1599.85	630
1605.08	560
1610.31	292
1615.53	210
1620.75	188
1625.96	164
1631.17	156
1636.37	140
1641.57	154
1646.76	158
1651.95	150
1657.13	146
1662.31	128
1667.48	124
1672.65	128
1677.81	120
1682.97	128
1688.12	126
1693.27	106
1698.41	120
1702.26	120

File: ps-ppo-6jan25-1,0000-map3_Y02_X10.txt
204.377	826
211.048	916
217.712	918
224.369	900
231.019	730
237.661	546
244.297	368
250.924	294
257.546	264
264.16	262
270.766	232
277.365	226
283.958	214
290.543	186
297.121	162
303.693	168
310.256	176
316.813	174
323.362	160
329.905	154
336.441	168
342.969	162
349.491	146
356.006	148
362.513	144
369.014	148
375.508	166
381.994	164
388.473	194
394.947	186
401.412	212
407.871	226
414.323	184
420.768	162
427.206	160
433.637	136
440.062	126
446.479	128
452.89	118
459.293	108
465.691	104
472.081	108
478.463	92
484.84	92
491.21	98
497.573	90
503.929	110
510.279	110
516.621	106
522.957	108
529.287	126
535.609	156
541.925	142
548.234	140
554.536	126
560.832	136
567.12	134
573.403	142
579.679	138
585.948	98
592.211	108
598.466	118
604.715	140
610.958	152
617.194	306
623.424	486
629.647	152
635.864	104
642.074	94
648.276	82
654.473	76
660.664	82
666.847	80
673.025	72
679.195	80
685.36	76
691.517	78
697.669	92
703.814	96
709.953	94
716.085	86
722.21	142
728.33	146
734.443	134
740.549	178
746.65	192
752.743	198
758.831	228
764.912	224
770.986	200
777.055	194
783.117	244
789.173	308
795.222	352
801.265	272
807.302	196
813.333	162
819.357	130
825.376	116
831.387	114
837.392	156
843.392	156
849.386	144
855.372	126
861.353	118
867.328	124
873.296	124
879.258	116
885.214	110
891.164	110
897.108	126
903.046	142
908.977	144
914.903	118
920.822	106
926.735	98
932.643	92
938.543	92
944.439	106
950.328	102
956.21	116
962.088	118
967.958	120
973.824	140
979.682	182
985.534	280
991.382	800
997.222	1202
1003.06	2874
1008.89	452
1014.71	180
1020.53	232
1026.34	496
1032.14	916
1037.94	406
1043.73	210
1049.52	170
1055.3	146
1061.08	154
1066.85	166
1072.61	184
1078.37	170
1084.12	162
1089.87	170
1095.61	170
1101.34	164
1107.07	138
1112.8	136
1118.51	116
1124.22	114
1129.93	102
1135.63	116
1141.32	130
1147.01	166
1152.69	358
1158.37	328
1164.04	216
1169.71	216
1175.37	312
1181.02	504
1186.67	438
1192.31	466
1197.95	504
1203.58	460
1209.2	316
1214.82	236
1220.44	206
1226.05	190
1231.65	188
1237.25	178
1242.84	174
1248.42	160
1254	172
1259.58	170
1265.15	176
1270.71	182
1276.27	178
1281.82	170
1287.37	198
1292.91	192
1298.45	214
1303.98	230
1309.5	224
1315.02	250
1320.53	270
1326.04	308
1331.54	310
1337.04	274
1342.53	290
1348.02	268
1353.5	266
1358.98	266
1364.45	294
1369.91	300
1375.37	284
1380.82	272
1386.27	260
1391.71	234
1397.15	248
1402.58	236
1408.01	226
1413.43	222
1418.85	236
1424.26	210
1429.66	226
1435.06	260
1440.46	282
1445.85	332
1451.23	334
1456.61	288
1461.98	220
1467.35	198
1472.71	200
1478.07	198
1483.42	184
1488.77	174
1494.11	194
1499.45	178
1504.78	184
1510.11	184
1515.43	172
1520.74	174
1526.05	160
1531.36	154
1536.66	170
1541.95	164
1547.24	156
1552.52	172
1557.8	168
1563.08	176
1568.35	186
1573.61	196
1578.87	268
1584.12	432
1589.37	248
1594.61	320
1599.85	618
1605.08	548
1610.31	278
1615.53	202
1620.75	168
1625.96	166
1631.17	148
1636.37	154
1641.57	146
1646.76	166
1651.95	150
1657.13	150
1662.31	144
1667.48	132
1672.65	132
1677.81	130
1682.97	130
1688.12	128
1693.27	124
1698.41	122
1702.26	122

File: ps-ppo-6jan25-1,0000-map3_Y03_X01.txt
204.377	834
211.048	886
217.712	920
224.369	878
231.019	708
237.661	542
244.297	388
250.924	306
257.546	272
264.16	260
270.766	252
277.365	218
283.958	216
290.543	192
297.121	172
303.693	162
310.256	156
316.813	178
323.362	164
329.905	168
336.441	156
342.969	164
349.491	152
356.006	140
362.513	134
369.014	144
375.508	154
381.994	160
388.473	170
394.947	184
401.412	200
407.871	230
414.323	200
420.768	162
427.206	154
433.637	138
440.062	136
446.479	128
452.89	118
459.293	104
465.691	104
472.081	102
478.463	94
484.84	94
491.21	90
497.573	100
503.929	108
510.279	102
516.621	106
522.957	106
529.287	120
535.609	142
541.925	136
548.234	140
554.536	134
560.832	122
567.12	132
573.403	132
579.679	112
585.948	106
592.211	106
598.466	108
604.715	130
610.958	142
617.194	314
623.424	484
629.647	148
635.864	98
642.074	78
648.276	76
654.473	76
660.664	76
666.847	80
673.025	76
679.195	72
685.36	80
691.517	72
697.669	80
703.814	96
709.953	86
716.085	84
722.21	136
728.33	134
734.443	122
740.549	180
746.65	182
752.743	206
758.831	236
764.912	222
770.986	200
777.055	196
783.117	232
789.173	296
795.222	328
801.265	278
807.302	188
813.333	154
819.357	116
825.376	112
831.387	118
837.392	144
843.392	152
849.386	134
855.372	116
861.353	126
867.328	124
873.296	120
879.258	114
885.214	106
891.164	108
897.108	116
903.046	130
908.977	140
914.903	122
920.822	108
926.735	96
932.643	96
938.543	82
944.439	90
950.328	98
956.21	98
962.088	114
967.958	126
973.824	128
979.682	182
985.534	264
991.382	718
997.222	1180
1003.06	2884
1008.89	424
1014.71	190
1020.53	230
1026.34	484
1032.14	854
1037.94	404
1043.73	198
1049.52	146
1055.3	154
1061.08	150
1066.85	166
1072.61	174
1078.37	166
1084.12	158
1089.87	160
1095.61	174
1101.34	166
1107.07	144
1112.8	134
1118.51	126
1124.22	112
1129.93	108
1135.63	112
1141.32	128
1147.01	172
1152.69	356
1158.37	322
1164.04	218
1169.71	202
1175.37	302
1181.02	540
1186.67	430
1192.31	482
1197.95	474
1203.58	422
1209.2	324
1214.82	228
1220.44	194
1226.05	196
1231.65	178
1237.25	156
1242.84	172
1248.42	166
1254	168
1259.58	176
1265.15	166
1270.71	158
1276.27	170
1281.82	172
1287.37	180
1292.91	186
1298.45	186
1303.98	210
1309.5	230
1315.02	220
1320.53	268
1326.04	282
1331.54	288
1337.04	272
1342.53	264
1348.02	270
1353.5	246
1358.98	242
1364.45	264
1369.91	256
1375.37	282
1380.82	250
1386.27	252
1391.71	228
1397.15	212
1402.58	200
1408.01	216
1413.43	200
1418.85	212
1424.26	212
1429.66	188
1435.06	220
1440.46	262
1445.85	300
1451.23	334
1456.61	264
1461.98	196
1467.35	194
1472.71	170
1478.07	178
1483.42	176
1488.77	154
1494.11	186
1499.45	170
1504.78	154
1510.11	152
1515.43	142
1520.74	166
1526.05	164
1531.36	156
1536.66	152
1541.95	146
1547.24	154
1552.52	152
1557.8	152
1563.08	158
1568.35	168
1573.61	188
1578.87	260
1584.12	380
1589.37	232
1594.61	300
1599.85	596
1605.08	554
1610.31	276
1615.53	190
1620.75	154
1625.96	142
1631.17	148
1636.37	140
1641.57	156
1646.76	146
1651.95	134
1657.13	136
1662.31	132
1667.48	128
1672.65	122
1677.81	122
1682.97	124
1688.12	112
1693.27	114
1698.41	116
1702.26	112

File: ps-ppo-6jan25-1,0000-map3_Y03_X02.txt
204.377	834
211.048	846
217.712	916
224.369	868
231.019	702
237.661	548
244.297	370
250.924	304
257.546	272
264.16	266
270.766	248
277.365	224
283.958	218
290.543	194
297.121	166
303.693	152
310.256	170
316.813	160
323.362	168
329.905	158
336.441	168
342.969	144
349.491	154
356.006	154
362.513	132
369.014	136
375.508	158
381.994	156
388.473	174
394.947	188
401.412	214
407.871	240
414.323	182
420.768	158
427.206	150
433.637	130
440.062	134
446.479	126
452.89	112
459.293	104
465.691	104
472.081	108
478.463	98
484.84	90
491.21	100
497.573	96
503.929	110
510.279	92
516.621	106
522.957	106
529.287	130
535.609	140
541.925	138
548.234	140
554.536	126
560.832	126
567.12	130
573.403	126
579.679	120
585.948	118
592.211	108
598.466	114
604.715	134
610.958	150
617.194	298
623.424	480
629.647	148
635.864	108
642.074	94
648.276	82
654.473	74
660.664	82
666.847	76
673.025	70
679.195	80
685.36	66
691.517	82
697.669	78
703.814	96
709.953	94
716.085	92
722.21	118
728.33	128
734.443	136
740.549	184
746.65	194
752.743	210
758.831	224
764.912	206
770.986	202
777.055	194
783.117	228
789.173	312
795.222	322
801.265	282
807.302	202
813.333	162
819.357	118
825.376	118
831.387	114
837.392	148
843.392	156
849.386	132
855.372	116
861.353	126
867.328	126
873.296	118
879.258	122
885.214	114
891.164	106
897.108	126
903.046	140
908.977	142
914.903	106
920.822	104
926.735	94
932.643	106
938.543	112
944.439	96
950.328	94
956.21	102
962.088	120
967.958	118
973.824	132
979.682	176
985.534	270
991.382	738
997.222	1242
1003.06	2862
1008.89	442
1014.71	188
1020.53	214
1026.34	466
1032.14	896
1037.94	410
1043.73	216
1049.52	152
1055.3	148
1061.08	152
1066.85	160
1072.61	176
1078.37	164
1084.12	166
1089.87	154
1095.61	176
1101.34	168
1107.07	136
1112.8	128
1118.51	116
1124.22	112
1129.93	110
1135.63	116
1141.32	142
1147.01	168
1152.69	354
1158.37	340
1164.04	224
1169.71	220
1175.37	304
1181.02	518
1186.67	440
1192.31	476
1197.95	474
1203.58	432
1209.2	308
1214.82	230
1220.44	208
1226.05	200
1231.65	178
1237.25	174
1242.84	164
1248.42	170
1254	174
1259.58	162
1265.15	158
1270.71	174
1276.27	178
1281.82	170
1287.37	176
1292.91	202
1298.45	204
1303.98	218
1309.5	224
1315.02	248
1320.53	270
1326.04	266
1331.54	292
1337.04	294
1342.53	284
1348.02	242
1353.5	258
1358.98	246
1364.45	270
1369.91	266
1375.37	270
1380.82	256
1386.27	244
1391.71	236
1397.15	218
1402.58	230
1408.01	232
1413.43	226
1418.85	214
1424.26	204
1429.66	210
1435.06	232
1440.46	272
1445.85	320
1451.23	332
1456.61	266
1461.98	196
1467.35	174
1472.71	174
1478.07	164
1483.42	172
1488.77	176
1494.11	182
1499.45	162
1504.78	158
1510.11	160
1515.43	158
1520.74	154
1526.05	152
1531.36	168
1536.66	154
1541.95	152
1547.24	154
1552.52	146
1557.8	160
1563.08	164
1568.35	170
1573.61	196
1578.87	260
1584.12	398
1589.37	248
1594.61	300
1599.85	618
1605.08	544
1610.31	248
1615.53	188
1620.75	168
1625.96	158
1631.17	148
1636.37	154
1641.57	140
1646.76	152
1651.95	134
1657.13	130
1662.31	134
1667.48	120
1672.65	122
1677.81	130
1682.97	124
1688.12	124
1693.27	122
1698.41	112
1702.26	114

File: ps-ppo-6jan25-1,0000-map3_Y03_X03.txt
204.377	840
211.048	890
217.712	942
224.369	872
231.019	728
237.661	554
244.297	416
250.924	330
257.546	296
264.16	288
270.766	254
277.365	258
283.958	222
290.543	196
297.121	182
303.693	176
310.256	188
316.813	186
323.362	186
329.905	180
336.441	176
342.969	168
349.491	158
356.006	162
362.513	154
369.014	160
375.508	160
381.994	186
388.473	196
394.947	202
401.412	212
407.871	240
414.323	200
420.768	170
427.206	152
433.637	144
440.062	146
446.479	140
452.89	128
459.293	104
465.691	120
472.081	118
478.463	114
484.84	108
491.21	110
497.573	102
503.929	120
510.279	120
516.621	110
522.957	128
529.287	124
535.609	158
541.925	156
548.234	146
554.536	138
560.832	146
567.12	148
573.403	150
579.679	130
585.948	112
592.211	108
598.466	124
604.715	138
610.958	152
617.194	320
623.424	470
629.647	154
635.864	114
642.074	98
648.276	90
654.473	90
660.664	80
666.847	86
673.025	76
679.195	78
685.36	80
691.517	80
697.669	82
703.814	102
709.953	100
716.085	94
722.21	130
728.33	134
734.443	140
740.549	184
746.65	196
752.743	208
758.831	242
764.912	224
770.986	190
777.055	200
783.117	242
789.173	298
795.222	364
801.265	272
807.302	194
813.333	170
819.357	128
825.376	122
831.387	124
837.392	152
843.392	160
849.386	132
855.372	136
861.353	126
867.328	130
873.296	124
879.258	122
885.214	112
891.164	116
897.108	112
903.046	136
908.977	136
914.903	114
920.822	110
926.735	100
932.643	108
938.543	100
944.439	104
950.328	100
956.21	100
962.088	128
967.958	132
973.824	142
979.682	186
985.534	282
991.382	736
997.222	1224
1003.06	2886
1008.89	458
1014.71	200
1020.53	210
1026.34	500
1032.14	906
1037.94	402
1043.73	222
1049.52	174
1055.3	146
1061.08	162
1066.85	180
1072.61	186
1078.37	174
1084.12	170
1089.87	166
1095.61	174
1101.34	168
1107.07	146
1112.8	142
1118.51	122
1124.22	106
1129.93	120
1135.63	124
1141.32	128
1147.01	178
1152.69	360
1158.37	358
1164.04	224
1169.71	238
1175.37	310
1181.02	528
1186.67	452
1192.31	482
1197.95	514
1203.58	456
1209.2	322
1214.82	224
1220.44	214
1226.05	200
1231.65	172
1237.25	166
1242.84	176
1248.42	164
1254	170
1259.58	166
1265.15	174
1270.71	178
1276.27	178
1281.82	188
1287.37	194
1292.91	196
1298.45	210
1303.98	216
1309.5	234
1315.02	248
1320.53	272
1326.04	280
1331.54	280
1337.04	288
1342.53	268
1348.02	272
1353.5	254
1358.98	258
1364.45	262
1369.91	276
1375.37	252
1380.82	262
1386.27	244
1391.71	230
1397.15	232
1402.58	226
1408.01	234
1413.43	214
1418.85	224
1424.26	220
1429.66	214
1435.06	230
1440.46	270
1445.85	310
1451.23	330
1456.61	284
1461.98	212
1467.35	196
1472.71	180
1478.07	186
1483.42	168
1488.77	186
1494.11	186
1499.45	176
1504.78	166
1510.11	170
1515.43	152
1520.74	154
1526.05	168
1531.36	162
1536.66	164
1541.95	162
1547.24	160
1552.52	174
1557.8	170
1563.08	174
1568.35	176
1573.61	178
1578.87	264
1584.12	408
1589.37	256
1594.61	306
1599.85	620
1605.08	562
1610.31	272
1615.53	216
1620.75	182
1625.96	160
1631.17	150
1636.37	148
1641.57	146
1646.76	150
1651.95	156
1657.13	132
1662.31	116
1667.48	142
1672.65	134
1677.81	134
1682.97	132
1688.12	134
1693.27	116
1698.41	130
1702.26	116

File: ps-ppo-6jan25-1,0000-map3_Y03_X05.txt
204.377	832
211.048	890
217.712	904
224.369	886
231.019	716
237.661	552
244.297	366
250.924	302
257.546	258
264.16	258
270.766	246
277.365	232
283.958	204
290.543	186
297.121	156
303.693	154
310.256	156
316.813	164
323.362	166
329.905	148
336.441	164
342.969	158
349.491	148
356.006	148
362.513	146
369.014	148
375.508	148
381.994	156
388.473	174
394.947	190
401.412	218
407.871	232
414.323	182
420.768	162
427.206	154
433.637	138
440.062	130
446.479	118
452.89	106
459.293	104
465.691	92
472.081	98
478.463	98
484.84	84
491.21	92
497.573	98
503.929	108
510.279	106
516.621	106
522.957	110
529.287	120
535.609	142
541.925	152
548.234	140
554.536	128
560.832	126
567.12	132
573.403	138
579.679	130
585.948	110
592.211	110
598.466	110
604.715	128
610.958	140
617.194	308
623.424	442
629.647	150
635.864	98
642.074	84
648.276	70
654.473	74
660.664	74
666.847	68
673.025	74
679.195	70
685.36	74
691.517	72
697.669	82
703.814	96
709.953	100
716.085	94
722.21	126
728.33	124
734.443	124
740.549	172
746.65	176
752.743	202
758.831	234
764.912	208
770.986	200
777.055	202
783.117	248
789.173	280
795.222	344
801.265	290
807.302	196
813.333	160
819.357	126
825.376	106
831.387	108
837.392	138
843.392	152
849.386	134
855.372	126
861.353	124
867.328	114
873.296	124
879.258	112
885.214	110
891.164	106
897.108	122
903.046	140
908.977	134
914.903	112
920.822	106
926.735	92
932.643	94
938.543	90
944.439	106
950.328	94
956.21	104
962.088	116
967.958	128
973.824	134
979.682	182
985.534	256
991.382	770
997.222	1226
1003.06	2832
1008.89	434
1014.71	180
1020.53	224
1026.34	498
1032.14	902
1037.94	414
1043.73	202
1049.52	170
1055.3	156
1061.08	164
1066.85	174
1072.61	176
1078.37	176
1084.12	164
1089.87	168
1095.61	170
1101.34	152
1107.07	144
1112.8	114
1118.51	122
1124.22	112
1129.93	102
1135.63	110
1141.32	120
1147.01	166
1152.69	350
1158.37	340
1164.04	222
1169.71	208
1175.37	276
1181.02	538
1186.67	432
1192.31	490
1197.95	492
1203.58	450
1209.2	304
1214.82	246
1220.44	204
1226.05	198
1231.65	182
1237.25	162
1242.84	174
1248.42	164
1254	168
1259.58	160
1265.15	178
1270.71	164
1276.27	160
1281.82	182
1287.37	184
1292.91	198
1298.45	190
1303.98	228
1309.5	224
1315.02	232
1320.53	268
1326.04	302
1331.54	306
1337.04	280
1342.53	268
1348.02	266
1353.5	256
1358.98	248
1364.45	276
1369.91	272
1375.37	272
1380.82	258
1386.27	246
1391.71	224
1397.15	238
1402.58	228
1408.01	236
1413.43	224
1418.85	212
1424.26	218
1429.66	228
1435.06	246
1440.46	270
1445.85	334
1451.23	320
1456.61	258
1461.98	212
1467.35	192
1472.71	170
1478.07	174
1483.42	176
1488.77	180
1494.11	180
1499.45	162
1504.78	150
1510.11	172
1515.43	180
1520.74	164
1526.05	164
1531.36	152
1536.66	154
1541.95	156
1547.24	158
1552.52	156
1557.8	158
1563.08	162
1568.35	170
1573.61	188
1578.87	274
1584.12	416
1589.37	246
1594.61	318
1599.85	632
1605.08	556
1610.31	270
1615.53	204
1620.75	182
1625.96	162
1631.17	136
1636.37	156
1641.57	138
1646.76	154
1651.95	140
1657.13	144
1662.31	128
1667.48	130
1672.65	128
1677.81	124
1682.97	120
1688.12	128
1693.27	126
1698.41	120
1702.26	118