Folder: NRC_SU25_Spectral_Classification/Mixture_Classification/Jesse_Dataset_v2/Pure Raman/Polystyrene/785nm (part 2)

File: ps-ppo-6jan25-1,0000-map3_Y01_X01.txt
204.377	804
211.048	842
217.712	884
224.369	882
231.019	708
237.661	552
244.297	374
250.924	300
257.546	278
264.16	250
270.766	242
277.365	208
283.958	212
290.543	180
297.121	170
303.693	156
310.256	164
316.813	170
323.362	154
329.905	166
336.441	166
342.969	160
349.491	144
356.006	144
362.513	148
369.014	146
375.508	154
381.994	168
388.473	182
394.947	178
401.412	202
407.871	222
414.323	196
420.768	168
427.206	146
433.637	130
440.062	138
446.479	132
452.89	104
459.293	94
465.691	106
472.081	110
478.463	96
484.84	96
491.21	86
497.573	102
503.929	110
510.279	102
516.621	116
522.957	104
529.287	114
535.609	146
541.925	144
548.234	132
554.536	132
560.832	120
567.12	136
573.403	132
579.679	114
585.948	108
592.211	110
598.466	116
604.715	136
610.958	150
617.194	300
623.424	464
629.647	144
635.864	100
642.074	82
648.276	76
654.473	74
660.664	70
666.847	72
673.025	70
679.195	78
685.36	74
691.517	82
697.669	80
703.814	98
709.953	94
716.085	90
722.21	126
728.33	124
734.443	114
740.549	182
746.65	188
752.743	192
758.831	222
764.912	220
770.986	200
777.055	196
783.117	228
789.173	308
795.222	326
801.265	276
807.302	196
813.333	158
819.357	128
825.376	112
831.387	102
837.392	134
843.392	148
849.386	124
855.372	128
861.353	120
867.328	120
873.296	120
879.258	112
885.214	106
891.164	114
897.108	120
903.046	138
908.977	144
914.903	122
920.822	96
926.735	100
932.643	84
938.543	94
944.439	100
950.328	98
956.21	104
962.088	116
967.958	126
973.824	130
979.682	166
985.534	268
991.382	738
997.222	1196
1003.06	2930
1008.89	446
1014.71	194
1020.53	218
1026.34	468
1032.14	920
1037.94	408
1043.73	194
1049.52	160
1055.3	148
1061.08	144
1066.85	172
1072.61	168
1078.37	158
1084.12	162
1089.87	154
1095.61	172
1101.34	168
1107.07	138
1112.8	124
1118.51	126
1124.22	108
1129.93	104
1135.63	122
1141.32	126
1147.01	152
1152.69	366
1158.37	334
1164.04	204
1169.71	206
1175.37	316
1181.02	528
1186.67	446
1192.31	458
1197.95	494
1203.58	422
1209.2	314
1214.82	236
1220.44	198
1226.05	196
1231.65	172
1237.25	174
1242.84	166
1248.42	154
1254	166
1259.58	164
1265.15	166
1270.71	166
1276.27	168
1281.82	184
1287.37	168
1292.91	192
1298.45	184
1303.98	198
1309.5	240
1315.02	236
1320.53	250
1326.04	274
1331.54	294
1337.04	272
1342.53	264
1348.02	252
1353.5	232
1358.98	270
1364.45	268
1369.91	268
1375.37	262
1380.82	252
1386.27	236
1391.71	226
1397.15	222
1402.58	222
1408.01	210
1413.43	218
1418.85	204
1424.26	204
1429.66	224
1435.06	236
1440.46	272
1445.85	310
1451.23	292
1456.61	262
1461.98	192
1467.35	198
1472.71	172
1478.07	180
1483.42	168
1488.77	170
1494.11	178
1499.45	158
1504.78	160
1510.11	166
1515.43	156
1520.74	158
1526.05	158
1531.36	148
1536.66	158
1541.95	160
1547.24	164
1552.52	158
1557.8	150
1563.08	158
1568.35	178
1573.61	190
1578.87	272
1584.12	380
1589.37	230
1594.61	296
1599.85	610
1605.08	566
1610.31	268
1615.53	176
1620.75	172
1625.96	150
1631.17	150
1636.37	142
1641.57	136
1646.76	142
1651.95	142
1657.13	128
1662.31	124
1667.48	130
1672.65	124
1677.81	118
1682.97	120
1688.12	120
1693.27	114
1698.41	116
1702.26	112

File: ps-ppo-6jan25-1,0000-map3_Y01_X02.txt
204.377	812
211.048	862
217.712	910
224.369	844
231.019	730
237.661	554
244.297	380
250.924	302
257.546	262
264.16	254
270.766	244
277.365	234
283.958	202
290.543	184
297.121	174
303.693	166
310.256	168
316.813	170
323.362	164
329.905	164
336.441	172
342.969	152
349.491	136
356.006	140
362.513	146
369.014	148
375.508	150
381.994	162
388.473	166
394.947	186
401.412	204
407.871	236
414.323	176
420.768	160
427.206	154
433.637	136
440.062	140
446.479	124
452.89	108
459.293	110
465.691	98
472.081	110
478.463	98
484.84	90
491.21	96
497.573	94
503.929	110
510.279	104
516.621	94
522.957	102
529.287	120
535.609	130
541.925	140
548.234	140
554.536	138
560.832	134
567.12	134
573.403	136
579.679	130
585.948	112
592.211	98
598.466	106
604.715	122
610.958	160
617.194	284
623.424	454
629.647	142
635.864	114
642.074	92
648.276	78
654.473	82
660.664	72
666.847	76
673.025	76
679.195	72
685.36	74
691.517	72
697.669	84
703.814	100
709.953	94
716.085	94
722.21	122
728.33	120
734.443	124
740.549	188
746.65	184
752.743	210
758.831	224
764.912	210
770.986	204
777.055	192
783.117	220
789.173	306
795.222	332
801.265	292
807.302	194
813.333	152
819.357	120
825.376	116
831.387	102
837.392	146
843.392	158
849.386	134
855.372	120
861.353	124
867.328	124
873.296	116
879.258	108
885.214	116
891.164	110
897.108	120
903.046	138
908.977	142
914.903	118
920.822	102
926.735	102
932.643	96
938.543	98
944.439	102
950.328	94
956.21	108
962.088	118
967.958	122
973.824	130
979.682	174
985.534	268
991.382	746
997.222	1176
1003.06	2866
1008.89	438
1014.71	206
1020.53	210
1026.34	484
1032.14	898
1037.94	428
1043.73	208
1049.52	160
1055.3	148
1061.08	146
1066.85	180
1072.61	174
1078.37	164
1084.12	162
1089.87	166
1095.61	170
1101.34	164
1107.07	142
1112.8	132
1118.51	116
1124.22	106
1129.93	92
1135.63	118
1141.32	120
1147.01	170
1152.69	344
1158.37	320
1164.04	212
1169.71	186
1175.37	314
1181.02	488
1186.67	440
1192.31	488
1197.95	514
1203.58	440
1209.2	314
1214.82	216
1220.44	206
1226.05	194
1231.65	176
1237.25	170
1242.84	170
1248.42	176
1254	164
1259.58	158
1265.15	156
1270.71	174
1276.27	160
1281.82	172
1287.37	176
1292.91	194
1298.45	212
1303.98	202
1309.5	224
1315.02	240
1320.53	270
1326.04	268
1331.54	290
1337.04	278
1342.53	262
1348.02	272
1353.5	262
1358.98	268
1364.45	276
1369.91	278
1375.37	264
1380.82	268
1386.27	244
1391.71	244
1397.15	242
1402.58	224
1408.01	226
1413.43	218
1418.85	234
1424.26	214
1429.66	214
1435.06	236
1440.46	270
1445.85	304
1451.23	320
1456.61	272
1461.98	218
1467.35	192
1472.71	176
1478.07	190
1483.42	180
1488.77	172
1494.11	180
1499.45	178
1504.78	162
1510.11	152
1515.43	152
1520.74	168
1526.05	160
1531.36	156
1536.66	154
1541.95	154
1547.24	146
1552.52	150
1557.8	140
1563.08	168
1568.35	166
1573.61	182
1578.87	254
1584.12	400
1589.37	244
1594.61	296
1599.85	596
1605.08	554
1610.31	268
1615.53	202
1620.75	170
1625.96	156
1631.17	142
1636.37	152
1641.57	152
1646.76	136
1651.95	144
1657.13	140
1662.31	124
1667.48	122
1672.65	134
1677.81	134
1682.97	120
1688.12	130
1693.27	128
1698.41	110
1702.26	114

File: ps-ppo-6jan25-1,0000-map3_Y01_X05.txt
204.377	802
211.048	854
217.712	926
224.369	864
231.019	712
237.661	568
244.297	376
250.924	316
257.546	278
264.16	258
270.766	244
277.365	212
283.958	222
290.543	186
297.121	178
303.693	164
310.256	144
316.813	176
323.362	168
329.905	164
336.441	176
342.969	154
349.491	160
356.006	152
362.513	146
369.014	156
375.508	162
381.994	162
388.473	188
394.947	192
401.412	200
407.871	230
414.323	184
420.768	156
427.206	152
433.637	130
440.062	138
446.479	124
452.89	110
459.293	106
465.691	104
472.081	96
478.463	100
484.84	92
491.21	90
497.573	102
503.929	114
510.279	110
516.621	112
522.957	104
529.287	116
535.609	146
541.925	144
548.234	144
554.536	124
560.832	124
567.12	122
573.403	140
579.679	116
585.948	104
592.211	98
598.466	118
604.715	124
610.958	146
617.194	316
623.424	462
629.647	130
635.864	100
642.074	94
648.276	78
654.473	68
660.664	80
666.847	82
673.025	74
679.195	74
685.36	76
691.517	72
697.669	90
703.814	100
709.953	90
716.085	104
722.21	136
728.33	128
734.443	134
740.549	182
746.65	170
752.743	214
758.831	230
764.912	224
770.986	208
777.055	184
783.117	238
789.173	300
795.222	340
801.265	286
807.302	204
813.333	148
819.357	114
825.376	112
831.387	120
837.392	138
843.392	152
849.386	132
855.372	124
861.353	128
867.328	106
873.296	120
879.258	112
885.214	114
891.164	106
897.108	122
903.046	138
908.977	142
914.903	118
920.822	100
926.735	96
932.643	102
938.543	106
944.439	92
950.328	94
956.21	94
962.088	118
967.958	124
973.824	138
979.682	190
985.534	250
991.382	728
997.222	1190
1003.06	2918
1008.89	442
1014.71	194
1020.53	208
1026.34	494
1032.14	880
1037.94	394
1043.73	206
1049.52	164
1055.3	146
1061.08	150
1066.85	168
1072.61	168
1078.37	178
1084.12	168
1089.87	160
1095.61	180
1101.34	156
1107.07	146
1112.8	124
1118.51	112
1124.22	96
1129.93	104
1135.63	94
1141.32	124
1147.01	178
1152.69	344
1158.37	342
1164.04	208
1169.71	214
1175.37	290
1181.02	542
1186.67	438
1192.31	490
1197.95	486
1203.58	426
1209.2	314
1214.82	222
1220.44	186
1226.05	196
1231.65	184
1237.25	168
1242.84	166
1248.42	162
1254	174
1259.58	172
1265.15	170
1270.71	180
1276.27	178
1281.82	170
1287.37	172
1292.91	196
1298.45	200
1303.98	230
1309.5	212
1315.02	234
1320.53	270
1326.04	292
1331.54	282
1337.04	266
1342.53	258
1348.02	268
1353.5	254
1358.98	254
1364.45	272
1369.91	298
1375.37	276
1380.82	254
1386.27	244
1391.71	216
1397.15	232
1402.58	222
1408.01	230
1413.43	216
1418.85	226
1424.26	216
1429.66	214
1435.06	234
1440.46	280
1445.85	318
1451.23	334
1456.61	272
1461.98	206
1467.35	194
1472.71	180
1478.07	182
1483.42	162
1488.77	168
1494.11	190
1499.45	164
1504.78	168
1510.11	158
1515.43	172
1520.74	160
1526.05	170
1531.36	166
1536.66	162
1541.95	150
1547.24	148
1552.52	156
1557.8	158
1563.08	170
1568.35	176
1573.61	194
1578.87	264
1584.12	384
1589.37	246
1594.61	302
1599.85	604
1605.08	550
1610.31	284
1615.53	198
1620.75	168
1625.96	164
1631.17	152
1636.37	148
1641.57	150
1646.76	150
1651.95	144
1657.13	134
1662.31	138
1667.48	134
1672.65	126
1677.81	124
1682.97	120
1688.12	130
1693.27	128
1698.41	122
1702.26	128

File: ps-ppo-6jan25-1,0000-map3_Y01_X06.txt
204.377	826
211.048	896
217.712	910
224.369	852
231.019	702
237.661	522
244.297	392
250.924	318
257.546	258
264.16	242
270.766	232
277.365	232
283.958	224
290.543	186
297.121	168
303.693	170
310.256	152
316.813	164
323.362	164
329.905	160
336.441	176
342.969	150
349.491	138
356.006	132
362.513	150
369.014	142
375.508	160
381.994	182
388.473	184
394.947	190
401.412	208
407.871	228
414.323	190
420.768	164
427.206	150
433.637	144
440.062	130
446.479	124
452.89	112
459.293	106
465.691	102
472.081	110
478.463	94
484.84	92
491.21	92
497.573	98
503.929	104
510.279	108
516.621	108
522.957	116
529.287	116
535.609	138
541.925	130
548.234	140
554.536	136
560.832	130
567.12	138
573.403	134
579.679	118
585.948	112
592.211	100
598.466	102
604.715	126
610.958	150
617.194	306
623.424	456
629.647	146
635.864	100
642.074	82
648.276	78
654.473	76
660.664	74
666.847	68
673.025	56
679.195	80
685.36	76
691.517	74
697.669	88
703.814	92
709.953	88
716.085	96
722.21	124
728.33	138
734.443	128
740.549	156
746.65	188
752.743	214
758.831	234
764.912	214
770.986	188
777.055	186
783.117	260
789.173	298
795.222	342
801.265	276
807.302	186
813.333	160
819.357	122
825.376	110
831.387	126
837.392	138
843.392	152
849.386	134
855.372	124
861.353	116
867.328	122
873.296	116
879.258	120
885.214	112
891.164	108
897.108	116
903.046	130
908.977	132
914.903	108
920.822	102
926.735	102
932.643	100
938.543	104
944.439	92
950.328	106
956.21	102
962.088	112
967.958	134
973.824	132
979.682	190
985.534	266
991.382	772
997.222	1198
1003.06	2938
1008.89	426
1014.71	184
1020.53	220
1026.34	476
1032.14	924
1037.94	402
1043.73	204
1049.52	160
1055.3	158
1061.08	144
1066.85	170
1072.61	176
1078.37	156
1084.12	164
1089.87	156
1095.61	152
1101.34	160
1107.07	132
1112.8	116
1118.51	126
1124.22	104
1129.93	112
1135.63	114
1141.32	140
1147.01	174
1152.69	354
1158.37	344
1164.04	220
1169.71	210
1175.37	296
1181.02	512
1186.67	410
1192.31	464
1197.95	496
1203.58	434
1209.2	306
1214.82	242
1220.44	208
1226.05	192
1231.65	178
1237.25	170
1242.84	168
1248.42	162
1254	168
1259.58	168
1265.15	164
1270.71	172
1276.27	170
1281.82	176
1287.37	172
1292.91	182
1298.45	196
1303.98	220
1309.5	218
1315.02	246
1320.53	256
1326.04	276
1331.54	308
1337.04	260
1342.53	262
1348.02	264
1353.5	260
1358.98	268
1364.45	282
1369.91	274
1375.37	278
1380.82	238
1386.27	238
1391.71	242
1397.15	230
1402.58	232
1408.01	238
1413.43	218
1418.85	204
1424.26	204
1429.66	218
1435.06	256
1440.46	282
1445.85	316
1451.23	322
1456.61	270
1461.98	228
1467.35	192
1472.71	190
1478.07	180
1483.42	186
1488.77	174
1494.11	182
1499.45	174
1504.78	158
1510.11	174
1515.43	164
1520.74	164
1526.05	170
1531.36	162
1536.66	154
1541.95	150
1547.24	160
1552.52	160
1557.8	162
1563.08	172
1568.35	176
1573.61	210
1578.87	258
1584.12	398
1589.37	246
1594.61	302
1599.85	618
1605.08	518
1610.31	290
1615.53	190
1620.75	162
1625.96	152
1631.17	154
1636.37	156
1641.57	156
1646.76	152
1651.95	148
1657.13	140
1662.31	132
1667.48	134
1672.65	124
1677.81	128
1682.97	126
1688.12	122
1693.27	122
1698.41	114
1702.26	132

File: ps-ppo-6jan25-1,0000-map3_Y01_X07.txt
204.377	842
211.048	880
217.712	922
224.369	878
231.019	714
237.661	546
244.297	386
250.924	310
257.546	286
264.16	250
270.766	246
277.365	218
283.958	224
290.543	184
297.121	166
303.693	172
310.256	168
316.813	174
323.362	164
329.905	164
336.441	162
342.969	156
349.491	160
356.006	146
362.513	140
369.014	160
375.508	152
381.994	162
388.473	192
394.947	182
401.412	214
407.871	226
414.323	196
420.768	164
427.206	148
433.637	136
440.062	138
446.479	136
452.89	112
459.293	120
465.691	96
472.081	100
478.463	98
484.84	96
491.21	92
497.573	98
503.929	116
510.279	112
516.621	104
522.957	120
529.287	120
535.609	144
541.925	156
548.234	140
554.536	138
560.832	142
567.12	136
573.403	128
579.679	122
585.948	104
592.211	116
598.466	118
604.715	142
610.958	146
617.194	334
623.424	470
629.647	140
635.864	102
642.074	88
648.276	86
654.473	78
660.664	86
666.847	82
673.025	68
679.195	82
685.36	74
691.517	74
697.669	96
703.814	102
709.953	98
716.085	102
722.21	132
728.33	130
734.443	130
740.549	192
746.65	190
752.743	204
758.831	228
764.912	232
770.986	206
777.055	212
783.117	230
789.173	298
795.222	354
801.265	266
807.302	188
813.333	158
819.357	116
825.376	108
831.387	116
837.392	136
843.392	166
849.386	136
855.372	120
861.353	130
867.328	128
873.296	108
879.258	116
885.214	122
891.164	112
897.108	122
903.046	144
908.977	140
914.903	118
920.822	98
926.735	88
932.643	94
938.543	104
944.439	110
950.328	98
956.21	100
962.088	134
967.958	134
973.824	136
979.682	192
985.534	262
991.382	752
997.222	1218
1003.06	2860
1008.89	464
1014.71	196
1020.53	228
1026.34	492
1032.14	906
1037.94	414
1043.73	204
1049.52	162
1055.3	148
1061.08	156
1066.85	172
1072.61	166
1078.37	170
1084.12	170
1089.87	166
1095.61	176
1101.34	166
1107.07	144
1112.8	138
1118.51	122
1124.22	106
1129.93	112
1135.63	112
1141.32	134
1147.01	178
1152.69	350
1158.37	334
1164.04	210
1169.71	200
1175.37	280
1181.02	508
1186.67	438
1192.31	476
1197.95	490
1203.58	432
1209.2	310
1214.82	240
1220.44	204
1226.05	196
1231.65	166
1237.25	172
1242.84	180
1248.42	168
1254	174
1259.58	164
1265.15	174
1270.71	180
1276.27	170
1281.82	166
1287.37	182
1292.91	198
1298.45	196
1303.98	210
1309.5	226
1315.02	246
1320.53	264
1326.04	292
1331.54	300
1337.04	278
1342.53	264
1348.02	274
1353.5	276
1358.98	268
1364.45	278
1369.91	284
1375.37	298
1380.82	254
1386.27	264
1391.71	240
1397.15	224
1402.58	222
1408.01	234
1413.43	218
1418.85	222
1424.26	218
1429.66	226
1435.06	248
1440.46	280
1445.85	308
1451.23	336
1456.61	268
1461.98	208
1467.35	200
1472.71	202
1478.07	188
1483.42	182
1488.77	176
1494.11	188
1499.45	174
1504.78	172
1510.11	164
1515.43	166
1520.74	154
1526.05	166
1531.36	166
1536.66	164
1541.95	152
1547.24	160
1552.52	176
1557.8	168
1563.08	180
1568.35	180
1573.61	198
1578.87	272
1584.12	378
1589.37	260
1594.61	300
1599.85	586
1605.08	568
1610.31	280
1615.53	198
1620.75	170
1625.96	162
1631.17	144
1636.37	140
1641.57	148
1646.76	150
1651.95	142
1657.13	138
1662.31	132
1667.48	144
1672.65	130
1677.81	114
1682.97	130
1688.12	120
1693.27	124
1698.41	126
1702.26	120

File: ps-ppo-6jan25-1,0000-map3_Y01_X08.txt
204.377	816
211.048	918
217.712	942
224.369	876
231.019	724
237.661	554
244.297	396
250.924	306
257.546	262
264.16	260
270.766	236
277.365	224
283.958	210
290.543	162
297.121	162
303.693	164
310.256	162
316.813	168
323.362	158
329.905	162
336.441	166
342.969	158
349.491	152
356.006	146
362.513	146
369.014	150
375.508	156
381.994	166
388.473	182
394.947	184
401.412	206
407.871	232
414.323	198
420.768	160
427.206	144
433.637	142
440.062	142
446.479	134
452.89	114
459.293	106
465.691	102
472.081	108
478.463	102
484.84	96
491.21	100
497.573	102
503.929	106
510.279	110
516.621	108
522.957	108
529.287	122
535.609	138
541.925	150
548.234	136
554.536	144
560.832	128
567.12	134
573.403	134
579.679	120
585.948	116
592.211	110
598.466	104
604.715	128
610.958	160
617.194	298
623.424	478
629.647	146
635.864	104
642.074	92
648.276	72
654.473	74
660.664	74
666.847	86
673.025	72
679.195	74
685.36	78
691.517	66
697.669	88
703.814	100
709.953	92
716.085	98
722.21	132
728.33	120
734.443	132
740.549	182
746.65	180
752.743	214
758.831	218
764.912	216
770.986	198
777.055	210
783.117	240
789.173	316
795.222	342
801.265	276
807.302	186
813.333	164
819.357	130
825.376	106
831.387	114
837.392	132
843.392	156
849.386	134
855.372	122
861.353	122
867.328	128
873.296	130
879.258	110
885.214	114
891.164	106
897.108	126
903.046	138
908.977	140
914.903	120
920.822	102
926.735	94
932.643	100
938.543	98
944.439	106
950.328	102
956.21	108
962.088	124
967.958	132
973.824	122
979.682	178
985.534	268
991.382	786
997.222	1194
1003.06	2842
1008.89	472
1014.71	190
1020.53	226
1026.34	510
1032.14	906
1037.94	406
1043.73	202
1049.52	164
1055.3	156
1061.08	160
1066.85	168
1072.61	166
1078.37	170
1084.12	166
1089.87	166
1095.61	178
1101.34	164
1107.07	142
1112.8	130
1118.51	118
1124.22	98
1129.93	106
1135.63	110
1141.32	134
1147.01	174
1152.69	348
1158.37	342
1164.04	204
1169.71	214
1175.37	290
1181.02	492
1186.67	440
1192.31	466
1197.95	490
1203.58	424
1209.2	308
1214.82	234
1220.44	196
1226.05	192
1231.65	186
1237.25	180
1242.84	180
1248.42	172
1254	172
1259.58	162
1265.15	170
1270.71	176
1276.27	166
1281.82	184
1287.37	194
1292.91	198
1298.45	202
1303.98	212
1309.5	238
1315.02	248
1320.53	284
1326.04	282
1331.54	306
1337.04	288
1342.53	280
1348.02	282
1353.5	274
1358.98	276
1364.45	292
1369.91	288
1375.37	292
1380.82	252
1386.27	248
1391.71	234
1397.15	246
1402.58	242
1408.01	230
1413.43	220
1418.85	228
1424.26	210
1429.66	228
1435.06	242
1440.46	288
1445.85	330
1451.23	318
1456.61	280
1461.98	214
1467.35	200
1472.71	178
1478.07	184
1483.42	168
1488.77	178
1494.11	188
1499.45	174
1504.78	182
1510.11	160
1515.43	170
1520.74	160
1526.05	162
1531.36	162
1536.66	158
1541.95	162
1547.24	150
1552.52	180
1557.8	170
1563.08	158
1568.35	166
1573.61	188
1578.87	282
1584.12	396
1589.37	250
1594.61	300
1599.85	618
1605.08	562
1610.31	272
1615.53	208
1620.75	166
1625.96	162
1631.17	154
1636.37	144
1641.57	148
1646.76	160
1651.95	144
1657.13	144
1662.31	120
1667.48	120
1672.65	134
1677.81	128
1682.97	134
1688.12	124
1693.27	124
1698.41	116
1702.26	120

File: ps-ppo-6jan25-1,0000-map3_Y02_X00.txt
204.377	838
211.048	878
217.712	904
224.369	846
231.019	708
237.661	548
244.297	402
250.924	320
257.546	280
264.16	262
270.766	250
277.365	248
283.958	218
290.543	186
297.121	166
303.693	164
310.256	164
316.813	174
323.362	176
329.905	162
336.441	172
342.969	164
349.491	146
356.006	144
362.513	156
369.014	150
375.508	170
381.994	174
388.473	168
394.947	188
401.412	202
407.871	216
414.323	200
420.768	158
427.206	148
433.637	140
440.062	122
446.479	134
452.89	116
459.293	104
465.691	104
472.081	108
478.463	104
484.84	96
491.21	90
497.573	96
503.929	114
510.279	102
516.621	112
522.957	112
529.287	126
535.609	138
541.925	148
548.234	142
554.536	136
560.832	130
567.12	124
573.403	140
579.679	112
585.948	108
592.211	104
598.466	116
604.715	128
610.958	150
617.194	310
623.424	460
629.647	146
635.864	100
642.074	96
648.276	90
654.473	82
660.664	82
666.847	84
673.025	74
679.195	76
685.36	76
691.517	74
697.669	84
703.814	104
709.953	100
716.085	94
722.21	130
728.33	136
734.443	134
740.549	170
746.65	168
752.743	208
758.831	248
764.912	222
770.986	202
777.055	200
783.117	230
789.173	296
795.222	336
801.265	274
807.302	202
813.333	164
819.357	124
825.376	112
831.387	118
837.392	140
843.392	160
849.386	134
855.372	130
861.353	130
867.328	120
873.296	122
879.258	120
885.214	118
891.164	110
897.108	122
903.046	136
908.977	146
914.903	112
920.822	96
926.735	96
932.643	96
938.543	94
944.439	102
950.328	98
956.21	106
962.088	120
967.958	130
973.824	138
979.682	184
985.534	262
991.382	722
997.222	1174
1003.06	2882
1008.89	450
1014.71	192
1020.53	216
1026.34	492
1032.14	880
1037.94	410
1043.73	198
1049.52	152
1055.3	146
1061.08	156
1066.85	162
1072.61	166
1078.37	158
1084.12	170
1089.87	176
1095.61	162
1101.34	166
1107.07	146
1112.8	130
1118.51	124
1124.22	110
1129.93	108
1135.63	112
1141.32	136
1147.01	166
1152.69	368
1158.37	346
1164.04	218
1169.71	216
1175.37	292
1181.02	512
1186.67	410
1192.31	480
1197.95	488
1203.58	432
1209.2	328
1214.82	228
1220.44	196
1226.05	204
1231.65	178
1237.25	152
1242.84	166
1248.42	154
1254	160
1259.58	170
1265.15	174
1270.71	174
1276.27	162
1281.82	176
1287.37	184
1292.91	196
1298.45	192
1303.98	214
1309.5	214
1315.02	236
1320.53	260
1326.04	270
1331.54	284
1337.04	270
1342.53	252
1348.02	260
1353.5	254
1358.98	254
1364.45	262
1369.91	268
1375.37	260
1380.82	248
1386.27	242
1391.71	216
1397.15	224
1402.58	224
1408.01	214
1413.43	206
1418.85	202
1424.26	210
1429.66	206
1435.06	230
1440.46	260
1445.85	326
1451.23	336
1456.61	268
1461.98	202
1467.35	172
1472.71	182
1478.07	180
1483.42	166
1488.77	176
1494.11	176
1499.45	162
1504.78	152
1510.11	166
1515.43	162
1520.74	156
1526.05	172
1531.36	150
1536.66	154
1541.95	148
1547.24	144
1552.52	164
1557.8	160
1563.08	152
1568.35	162
1573.61	190
1578.87	270
1584.12	384
1589.37	222
1594.61	282
1599.85	630
1605.08	546
1610.31	264
1615.53	194
1620.75	170
1625.96	154
1631.17	148
1636.37	128
1641.57	150
1646.76	146
1651.95	132
1657.13	132
1662.31	120
1667.48	126
1672.65	124
1677.81	122
1682.97	120
1688.12	120
1693.27	122
1698.41	116
1702.26	114

File: ps-ppo-6jan25-1,0000-map3_Y02_X01.txt
204.377	830
211.048	890
217.712	920
224.369	870
231.019	708
237.661	558
244.297	390
250.924	302
257.546	272
264.16	268
270.766	238
277.365	234
283.958	222
290.543	188
297.121	168
303.693	156
310.256	168
316.813	162
323.362	172
329.905	174
336.441	174
342.969	154
349.491	154
356.006	154
362.513	156
369.014	154
375.508	152
381.994	156
388.473	184
394.947	186
401.412	226
407.871	236
414.323	192
420.768	172
427.206	160
433.637	144
440.062	128
446.479	122
452.89	118
459.293	108
465.691	104
472.081	112
478.463	104
484.84	96
491.21	98
497.573	106
503.929	112
510.279	118
516.621	112
522.957	116
529.287	118
535.609	134
541.925	138
548.234	148
554.536	144
560.832	134
567.12	126
573.403	140
579.679	120
585.948	110
592.211	116
598.466	116
604.715	126
610.958	134
617.194	310
623.424	450
629.647	152
635.864	114
642.074	92
648.276	80
654.473	76
660.664	82
666.847	74
673.025	64
679.195	76
685.36	70
691.517	74
697.669	92
703.814	106
709.953	92
716.085	90
722.21	128
728.33	130
734.443	132
740.549	188
746.65	162
752.743	206
758.831	236
764.912	212
770.986	190
777.055	196
783.117	238
789.173	308
795.222	352
801.265	280
807.302	192
813.333	166
819.357	134
825.376	116
831.387	104
837.392	148
843.392	156
849.386	134
855.372	124
861.353	120
867.328	116
873.296	122
879.258	116
885.214	108
891.164	112
897.108	112
903.046	130
908.977	140
914.903	116
920.822	104
926.735	96
932.643	92
938.543	100
944.439	100
950.328	100
956.21	100
962.088	116
967.958	128
973.824	134
979.682	178
985.534	252
991.382	720
997.222	1226
1003.06	2894
1008.89	446
1014.71	176
1020.53	222
1026.34	492
1032.14	884
1037.94	414
1043.73	198
1049.52	158
1055.3	150
1061.08	158
1066.85	184
1072.61	158
1078.37	174
1084.12	160
1089.87	166
1095.61	172
1101.34	150
1107.07	144
1112.8	112
1118.51	120
1124.22	104
1129.93	96
1135.63	106
1141.32	130
1147.01	168
1152.69	370
1158.37	352
1164.04	218
1169.71	208
1175.37	290
1181.02	522
1186.67	418
1192.31	468
1197.95	498
1203.58	424
1209.2	320
1214.82	234
1220.44	212
1226.05	192
1231.65	172
1237.25	164
1242.84	172
1248.42	166
1254	168
1259.58	156
1265.15	172
1270.71	154
1276.27	176
1281.82	168
1287.37	174
1292.91	192
1298.45	186
1303.98	214
1309.5	218
1315.02	230
1320.53	254
1326.04	282
1331.54	298
1337.04	266
1342.53	250
1348.02	248
1353.5	266
1358.98	250
1364.45	272
1369.91	274
1375.37	266
1380.82	242
1386.27	244
1391.71	236
1397.15	244
1402.58	220
1408.01	222
1413.43	218
1418.85	218
1424.26	210
1429.66	206
1435.06	232
1440.46	284
1445.85	312
1451.23	326
1456.61	272
1461.98	210
1467.35	190
1472.71	180
1478.07	192
1483.42	168
1488.77	174
1494.11	180
1499.45	166
1504.78	164
1510.11	160
1515.43	150
1520.74	160
1526.05	176
1531.36	152
1536.66	158
1541.95	146
1547.24	154
1552.52	160
1557.8	154
1563.08	156
1568.35	162
1573.61	194
1578.87	246
1584.12	388
1589.37	240
1594.61	314
1599.85	604
1605.08	564
1610.31	276
1615.53	180
1620.75	174
1625.96	154
1631.17	148
1636.37	142
1641.57	148
1646.76	134
1651.95	138
1657.13	120
1662.31	134
1667.48	126
1672.65	120
1677.81	128
1682.97	124
1688.12	124
1693.27	120
1698.41	110
1702.26	116