Folder: NRC_SU25_Spectral_Classification/Mixture_Classification/Jesse_Dataset_v2/Pure Raman/Polystyrene/785nm (part 8)

File: ps-ppo-6jan25-1,0000-map3_Y08_X00.txt
204.377	812
211.048	880
217.712	914
224.369	850
231.019	684
237.661	548
244.297	372
250.924	310
257.546	274
264.16	268
270.766	268
277.365	232
283.958	216
290.543	182
297.121	174
303.693	168
310.256	178
316.813	172
323.362	178
329.905	172
336.441	172
342.969	152
349.491	162
356.006	160
362.513	152
369.014	156
375.508	162
381.994	168
388.473	182
394.947	204
401.412	210
407.871	232
414.323	198
420.768	180
427.206	156
433.637	140
440.062	142
446.479	130
452.89	118
459.293	122
465.691	110
472.081	98
478.463	94
484.84	98
491.21	102
497.573	106
503.929	112
510.279	110
516.621	102
522.957	114
529.287	126
535.609	142
541.925	142
548.234	140
554.536	140
560.832	130
567.12	124
573.403	146
579.679	120
585.948	106
592.211	98
598.466	104
604.715	130
610.958	144
617.194	316
623.424	466
629.647	150
635.864	102
642.074	82
648.276	82
654.473	82
660.664	82
666.847	74
673.025	76
679.195	74
685.36	74
691.517	66
697.669	82
703.814	106
709.953	96
716.085	96
722.21	138
728.33	124
734.443	150
740.549	192
746.65	188
752.743	202
758.831	230
764.912	204
770.986	194
777.055	200
783.117	242
789.173	290
795.222	326
801.265	294
807.302	196
813.333	152
819.357	126
825.376	110
831.387	106
837.392	148
843.392	164
849.386	134
855.372	126
861.353	114
867.328	122
873.296	120
879.258	126
885.214	114
891.164	104
897.108	120
903.046	130
908.977	134
914.903	120
920.822	106
926.735	90
932.643	102
938.543	98
944.439	106
950.328	104
956.21	98
962.088	116
967.958	128
973.824	136
979.682	172
985.534	270
991.382	738
997.222	1240
1003.06	2776
1008.89	440
1014.71	176
1020.53	220
1026.34	502
1032.14	880
1037.94	404
1043.73	214
1049.52	168
1055.3	162
1061.08	164
1066.85	160
1072.61	176
1078.37	158
1084.12	162
1089.87	162
1095.61	174
1101.34	164
1107.07	142
1112.8	130
1118.51	122
1124.22	106
1129.93	108
1135.63	112
1141.32	126
1147.01	168
1152.69	358
1158.37	334
1164.04	208
1169.71	202
1175.37	300
1181.02	542
1186.67	424
1192.31	484
1197.95	510
1203.58	432
1209.2	332
1214.82	220
1220.44	210
1226.05	206
1231.65	170
1237.25	174
1242.84	162
1248.42	158
1254	166
1259.58	170
1265.15	176
1270.71	174
1276.27	166
1281.82	172
1287.37	186
1292.91	184
1298.45	204
1303.98	216
1309.5	210
1315.02	256
1320.53	270
1326.04	290
1331.54	292
1337.04	288
1342.53	246
1348.02	264
1353.5	248
1358.98	266
1364.45	274
1369.91	268
1375.37	266
1380.82	262
1386.27	242
1391.71	220
1397.15	238
1402.58	230
1408.01	214
1413.43	214
1418.85	216
1424.26	196
1429.66	218
1435.06	244
1440.46	288
1445.85	312
1451.23	318
1456.61	266
1461.98	214
1467.35	180
1472.71	182
1478.07	182
1483.42	172
1488.77	174
1494.11	192
1499.45	170
1504.78	174
1510.11	162
1515.43	162
1520.74	152
1526.05	160
1531.36	168
1536.66	154
1541.95	154
1547.24	144
1552.52	148
1557.8	168
1563.08	162
1568.35	176
1573.61	186
1578.87	270
1584.12	402
1589.37	266
1594.61	312
1599.85	622
1605.08	560
1610.31	260
1615.53	206
1620.75	164
1625.96	166
1631.17	150
1636.37	146
1641.57	140
1646.76	148
1651.95	156
1657.13	144
1662.31	128
1667.48	126
1672.65	136
1677.81	122
1682.97	118
1688.12	120
1693.27	114
1698.41	112
1702.26	118

File: ps-ppo-6jan25-1,0000-map3_Y08_X01.txt
204.377	832
211.048	878
217.712	918
224.369	886
231.019	708
237.661	528
244.297	382
250.924	302
257.546	272
264.16	262
270.766	254
277.365	236
283.958	208
290.543	192
297.121	168
303.693	160
310.256	162
316.813	174
323.362	166
329.905	168
336.441	162
342.969	154
349.491	156
356.006	142
362.513	148
369.014	154
375.508	160
381.994	170
388.473	176
394.947	190
401.412	224
407.871	224
414.323	192
420.768	164
427.206	144
433.637	144
440.062	138
446.479	136
452.89	118
459.293	106
465.691	102
472.081	106
478.463	100
484.84	98
491.21	92
497.573	90
503.929	112
510.279	102
516.621	112
522.957	118
529.287	120
535.609	142
541.925	154
548.234	138
554.536	134
560.832	132
567.12	128
573.403	136
579.679	118
585.948	98
592.211	108
598.466	106
604.715	126
610.958	138
617.194	316
623.424	454
629.647	136
635.864	104
642.074	84
648.276	84
654.473	74
660.664	72
666.847	78
673.025	74
679.195	72
685.36	72
691.517	66
697.669	90
703.814	98
709.953	100
716.085	98
722.21	128
728.33	126
734.443	124
740.549	160
746.65	182
752.743	198
758.831	240
764.912	202
770.986	204
777.055	208
783.117	224
789.173	302
795.222	350
801.265	272
807.302	194
813.333	172
819.357	122
825.376	100
831.387	108
837.392	138
843.392	154
849.386	134
855.372	116
861.353	122
867.328	118
873.296	118
879.258	108
885.214	108
891.164	106
897.108	104
903.046	136
908.977	142
914.903	104
920.822	102
926.735	100
932.643	98
938.543	90
944.439	98
950.328	104
956.21	106
962.088	120
967.958	130
973.824	138
979.682	180
985.534	268
991.382	740
997.222	1274
1003.06	2862
1008.89	450
1014.71	184
1020.53	234
1026.34	496
1032.14	884
1037.94	404
1043.73	200
1049.52	164
1055.3	146
1061.08	150
1066.85	170
1072.61	172
1078.37	166
1084.12	170
1089.87	166
1095.61	182
1101.34	168
1107.07	134
1112.8	134
1118.51	114
1124.22	116
1129.93	104
1135.63	120
1141.32	126
1147.01	172
1152.69	336
1158.37	340
1164.04	206
1169.71	208
1175.37	306
1181.02	522
1186.67	472
1192.31	478
1197.95	496
1203.58	426
1209.2	318
1214.82	236
1220.44	194
1226.05	202
1231.65	184
1237.25	170
1242.84	162
1248.42	166
1254	154
1259.58	164
1265.15	164
1270.71	152
1276.27	162
1281.82	168
1287.37	176
1292.91	192
1298.45	210
1303.98	210
1309.5	226
1315.02	250
1320.53	272
1326.04	276
1331.54	284
1337.04	282
1342.53	258
1348.02	234
1353.5	264
1358.98	266
1364.45	274
1369.91	270
1375.37	270
1380.82	258
1386.27	242
1391.71	226
1397.15	226
1402.58	236
1408.01	222
1413.43	222
1418.85	222
1424.26	218
1429.66	206
1435.06	230
1440.46	284
1445.85	320
1451.23	322
1456.61	280
1461.98	194
1467.35	176
1472.71	168
1478.07	174
1483.42	168
1488.77	170
1494.11	180
1499.45	188
1504.78	166
1510.11	162
1515.43	162
1520.74	156
1526.05	152
1531.36	170
1536.66	156
1541.95	166
1547.24	158
1552.52	168
1557.8	152
1563.08	162
1568.35	158
1573.61	188
1578.87	262
1584.12	406
1589.37	260
1594.61	294
1599.85	620
1605.08	570
1610.31	276
1615.53	212
1620.75	182
1625.96	150
1631.17	158
1636.37	142
1641.57	150
1646.76	156
1651.95	132
1657.13	136
1662.31	122
1667.48	126
1672.65	134
1677.81	120
1682.97	124
1688.12	130
1693.27	122
1698.41	122
1702.26	110

File: ps-ppo-6jan25-1,0000-map3_Y08_X04.txt
204.377	826
211.048	900
217.712	906
224.369	896
231.019	710
237.661	538
244.297	392
250.924	314
257.546	276
264.16	264
270.766	244
277.365	218
283.958	224
290.543	192
297.121	168
303.693	164
310.256	170
316.813	186
323.362	178
329.905	162
336.441	174
342.969	164
349.491	156
356.006	144
362.513	150
369.014	154
375.508	170
381.994	174
388.473	190
394.947	194
401.412	214
407.871	232
414.323	204
420.768	164
427.206	156
433.637	148
440.062	142
446.479	128
452.89	118
459.293	106
465.691	106
472.081	106
478.463	100
484.84	98
491.21	100
497.573	100
503.929	114
510.279	112
516.621	112
522.957	104
529.287	130
535.609	136
541.925	144
548.234	140
554.536	148
560.832	142
567.12	132
573.403	142
579.679	112
585.948	116
592.211	110
598.466	118
604.715	138
610.958	156
617.194	324
623.424	456
629.647	154
635.864	104
642.074	80
648.276	80
654.473	80
660.664	84
666.847	70
673.025	68
679.195	72
685.36	72
691.517	78
697.669	86
703.814	98
709.953	96
716.085	96
722.21	130
728.33	124
734.443	134
740.549	172
746.65	174
752.743	198
758.831	234
764.912	230
770.986	194
777.055	212
783.117	250
789.173	306
795.222	350
801.265	288
807.302	198
813.333	158
819.357	124
825.376	114
831.387	106
837.392	148
843.392	168
849.386	136
855.372	126
861.353	112
867.328	120
873.296	122
879.258	108
885.214	110
891.164	108
897.108	124
903.046	148
908.977	142
914.903	116
920.822	98
926.735	104
932.643	88
938.543	100
944.439	102
950.328	106
956.21	102
962.088	116
967.958	122
973.824	136
979.682	178
985.534	292
991.382	772
997.222	1222
1003.06	2864
1008.89	438
1014.71	184
1020.53	224
1026.34	500
1032.14	876
1037.94	410
1043.73	208
1049.52	156
1055.3	152
1061.08	160
1066.85	172
1072.61	180
1078.37	166
1084.12	154
1089.87	168
1095.61	174
1101.34	162
1107.07	146
1112.8	134
1118.51	108
1124.22	102
1129.93	96
1135.63	116
1141.32	134
1147.01	166
1152.69	346
1158.37	348
1164.04	208
1169.71	212
1175.37	292
1181.02	532
1186.67	432
1192.31	460
1197.95	484
1203.58	460
1209.2	312
1214.82	230
1220.44	200
1226.05	200
1231.65	178
1237.25	170
1242.84	178
1248.42	172
1254	158
1259.58	182
1265.15	170
1270.71	174
1276.27	174
1281.82	174
1287.37	180
1292.91	198
1298.45	202
1303.98	218
1309.5	228
1315.02	252
1320.53	290
1326.04	290
1331.54	296
1337.04	288
1342.53	270
1348.02	244
1353.5	268
1358.98	256
1364.45	290
1369.91	274
1375.37	272
1380.82	252
1386.27	252
1391.71	220
1397.15	232
1402.58	242
1408.01	220
1413.43	230
1418.85	226
1424.26	222
1429.66	208
1435.06	236
1440.46	296
1445.85	316
1451.23	338
1456.61	266
1461.98	214
1467.35	206
1472.71	192
1478.07	172
1483.42	188
1488.77	178
1494.11	186
1499.45	182
1504.78	176
1510.11	164
1515.43	170
1520.74	180
1526.05	168
1531.36	180
1536.66	150
1541.95	174
1547.24	160
1552.52	164
1557.8	166
1563.08	174
1568.35	186
1573.61	192
1578.87	272
1584.12	392
1589.37	240
1594.61	304
1599.85	600
1605.08	532
1610.31	266
1615.53	194
1620.75	180
1625.96	162
1631.17	142
1636.37	142
1641.57	146
1646.76	150
1651.95	142
1657.13	124
1662.31	126
1667.48	128
1672.65	118
1677.81	128
1682.97	118
1688.12	116
1693.27	122
1698.41	124
1702.26	132

File: ps-ppo-6jan25-1,0000-map3_Y08_X05.txt
204.377	824
211.048	874
217.712	912
224.369	882
231.019	738
237.661	540
244.297	414
250.924	320
257.546	296
264.16	284
270.766	252
277.365	254
283.958	228
290.543	212
297.121	188
303.693	176
310.256	172
316.813	174
323.362	186
329.905	184
336.441	172
342.969	176
349.491	164
356.006	168
362.513	158
369.014	160
375.508	178
381.994	186
388.473	182
394.947	198
401.412	230
407.871	246
414.323	200
420.768	184
427.206	170
433.637	140
440.062	146
446.479	146
452.89	126
459.293	126
465.691	108
472.081	116
478.463	114
484.84	120
491.21	98
497.573	112
503.929	130
510.279	118
516.621	120
522.957	134
529.287	134
535.609	150
541.925	154
548.234	154
554.536	140
560.832	134
567.12	148
573.403	154
579.679	122
585.948	114
592.211	120
598.466	130
604.715	146
610.958	144
617.194	322
623.424	492
629.647	166
635.864	116
642.074	98
648.276	90
654.473	94
660.664	86
666.847	80
673.025	90
679.195	78
685.36	84
691.517	88
697.669	94
703.814	102
709.953	102
716.085	108
722.21	134
728.33	140
734.443	146
740.549	196
746.65	182
752.743	212
758.831	234
764.912	200
770.986	208
777.055	200
783.117	248
789.173	314
795.222	354
801.265	298
807.302	204
813.333	162
819.357	132
825.376	112
831.387	112
837.392	138
843.392	152
849.386	132
855.372	128
861.353	132
867.328	128
873.296	120
879.258	126
885.214	118
891.164	116
897.108	134
903.046	148
908.977	140
914.903	118
920.822	104
926.735	106
932.643	102
938.543	106
944.439	102
950.328	102
956.21	112
962.088	130
967.958	134
973.824	144
979.682	180
985.534	280
991.382	786
997.222	1228
1003.06	2850
1008.89	456
1014.71	190
1020.53	226
1026.34	500
1032.14	854
1037.94	410
1043.73	208
1049.52	170
1055.3	152
1061.08	160
1066.85	168
1072.61	180
1078.37	182
1084.12	170
1089.87	174
1095.61	170
1101.34	164
1107.07	144
1112.8	128
1118.51	122
1124.22	118
1129.93	120
1135.63	122
1141.32	126
1147.01	176
1152.69	352
1158.37	336
1164.04	216
1169.71	224
1175.37	312
1181.02	526
1186.67	448
1192.31	476
1197.95	504
1203.58	448
1209.2	326
1214.82	234
1220.44	206
1226.05	192
1231.65	176
1237.25	170
1242.84	172
1248.42	180
1254	166
1259.58	178
1265.15	180
1270.71	166
1276.27	172
1281.82	180
1287.37	198
1292.91	194
1298.45	208
1303.98	210
1309.5	224
1315.02	254
1320.53	262
1326.04	296
1331.54	294
1337.04	290
1342.53	246
1348.02	270
1353.5	268
1358.98	266
1364.45	266
1369.91	290
1375.37	284
1380.82	264
1386.27	254
1391.71	244
1397.15	240
1402.58	230
1408.01	222
1413.43	212
1418.85	224
1424.26	226
1429.66	230
1435.06	252
1440.46	296
1445.85	326
1451.23	342
1456.61	256
1461.98	218
1467.35	186
1472.71	188
1478.07	186
1483.42	174
1488.77	186
1494.11	186
1499.45	174
1504.78	168
1510.11	170
1515.43	162
1520.74	166
1526.05	166
1531.36	166
1536.66	160
1541.95	168
1547.24	170
1552.52	168
1557.8	176
1563.08	166
1568.35	178
1573.61	176
1578.87	278
1584.12	406
1589.37	262
1594.61	326
1599.85	646
1605.08	562
1610.31	270
1615.53	202
1620.75	186
1625.96	174
1631.17	152
1636.37	162
1641.57	150
1646.76	146
1651.95	152
1657.13	134
1662.31	130
1667.48	136
1672.65	126
1677.81	120
1682.97	142
1688.12	132
1693.27	128
1698.41	120
1702.26	116

File: ps-ppo-6jan25-1,0000-map3_Y08_X09.txt
204.377	860
211.048	890
217.712	890
224.369	886
231.019	700
237.661	552
244.297	380
250.924	316
257.546	302
264.16	254
270.766	246
277.365	236
283.958	212
290.543	186
297.121	190
303.693	186
310.256	176
316.813	188
323.362	186
329.905	174
336.441	180
342.969	172
349.491	158
356.006	148
362.513	158
369.014	166
375.508	164
381.994	178
388.473	196
394.947	212
401.412	218
407.871	250
414.323	206
420.768	166
427.206	156
433.637	150
440.062	140
446.479	134
452.89	116
459.293	102
465.691	116
472.081	106
478.463	110
484.84	106
491.21	112
497.573	120
503.929	118
510.279	106
516.621	116
522.957	116
529.287	132
535.609	158
541.925	152
548.234	150
554.536	150
560.832	150
567.12	136
573.403	136
579.679	128
585.948	116
592.211	110
598.466	120
604.715	138
610.958	160
617.194	324
623.424	464
629.647	150
635.864	106
642.074	102
648.276	86
654.473	88
660.664	94
666.847	84
673.025	80
679.195	84
685.36	82
691.517	84
697.669	86
703.814	102
709.953	100
716.085	102
722.21	142
728.33	130
734.443	140
740.549	184
746.65	192
752.743	216
758.831	240
764.912	224
770.986	212
777.055	204
783.117	254
789.173	300
795.222	330
801.265	292
807.302	188
813.333	162
819.357	120
825.376	118
831.387	124
837.392	148
843.392	166
849.386	130
855.372	124
861.353	126
867.328	126
873.296	110
879.258	134
885.214	98
891.164	118
897.108	126
903.046	142
908.977	152
914.903	108
920.822	112
926.735	108
932.643	90
938.543	106
944.439	112
950.328	104
956.21	100
962.088	112
967.958	130
973.824	134
979.682	192
985.534	284
991.382	800
997.222	1268
1003.06	2852
1008.89	458
1014.71	196
1020.53	218
1026.34	490
1032.14	908
1037.94	408
1043.73	206
1049.52	162
1055.3	156
1061.08	174
1066.85	172
1072.61	172
1078.37	170
1084.12	168
1089.87	168
1095.61	180
1101.34	172
1107.07	146
1112.8	144
1118.51	122
1124.22	110
1129.93	98
1135.63	118
1141.32	122
1147.01	176
1152.69	368
1158.37	330
1164.04	218
1169.71	220
1175.37	324
1181.02	528
1186.67	440
1192.31	500
1197.95	494
1203.58	448
1209.2	324
1214.82	236
1220.44	214
1226.05	208
1231.65	180
1237.25	188
1242.84	172
1248.42	166
1254	188
1259.58	172
1265.15	176
1270.71	162
1276.27	172
1281.82	190
1287.37	180
1292.91	204
1298.45	208
1303.98	234
1309.5	230
1315.02	242
1320.53	286
1326.04	274
1331.54	308
1337.04	300
1342.53	276
1348.02	276
1353.5	274
1358.98	270
1364.45	270
1369.91	296
1375.37	292
1380.82	270
1386.27	258
1391.71	248
1397.15	254
1402.58	240
1408.01	234
1413.43	232
1418.85	234
1424.26	226
1429.66	210
1435.06	264
1440.46	270
1445.85	312
1451.23	316
1456.61	282
1461.98	210
1467.35	212
1472.71	200
1478.07	198
1483.42	194
1488.77	180
1494.11	186
1499.45	176
1504.78	176
1510.11	188
1515.43	168
1520.74	162
1526.05	174
1531.36	178
1536.66	172
1541.95	172
1547.24	168
1552.52	174
1557.8	168
1563.08	170
1568.35	192
1573.61	188
1578.87	294
1584.12	410
1589.37	248
1594.61	298
1599.85	612
1605.08	548
1610.31	288
1615.53	204
1620.75	180
1625.96	170
1631.17	158
1636.37	162
1641.57	160
1646.76	160
1651.95	150
1657.13	144
1662.31	138
1667.48	134
1672.65	126
1677.81	144
1682.97	140
1688.12	124
1693.27	124
1698.41	132
1702.26	128

File: ps-ppo-6jan25-1,0000-map3_Y09_X08.txt
204.377	850
211.048	908
217.712	918
224.369	880
231.019	700
237.661	556
244.297	394
250.924	322
257.546	312
264.16	266
270.766	254
277.365	260
283.958	232
290.543	208
297.121	190
303.693	170
310.256	174
316.813	182
323.362	192
329.905	188
336.441	190
342.969	188
349.491	166
356.006	164
362.513	144
369.014	164
375.508	182
381.994	184
388.473	200
394.947	204
401.412	210
407.871	248
414.323	206
420.768	182
427.206	170
433.637	150
440.062	144
446.479	148
452.89	128
459.293	124
465.691	120
472.081	112
478.463	114
484.84	104
491.21	112
497.573	118
503.929	126
510.279	112
516.621	126
522.957	126
529.287	130
535.609	152
541.925	158
548.234	152
554.536	144
560.832	142
567.12	142
573.403	158
579.679	134
585.948	130
592.211	128
598.466	122
604.715	140
610.958	152
617.194	332
623.424	460
629.647	162
635.864	110
642.074	96
648.276	96
654.473	88
660.664	82
666.847	92
673.025	86
679.195	88
685.36	86
691.517	84
697.669	98
703.814	110
709.953	108
716.085	104
722.21	138
728.33	134
734.443	142
740.549	188
746.65	200
752.743	200
758.831	256
764.912	236
770.986	210
777.055	196
783.117	240
789.173	310
795.222	348
801.265	290
807.302	206
813.333	168
819.357	138
825.376	118
831.387	124
837.392	148
843.392	166
849.386	136
855.372	124
861.353	130
867.328	126
873.296	120
879.258	118
885.214	116
891.164	116
897.108	126
903.046	146
908.977	156
914.903	104
920.822	104
926.735	100
932.643	92
938.543	102
944.439	108
950.328	104
956.21	108
962.088	122
967.958	136
973.824	140
979.682	174
985.534	274
991.382	822
997.222	1296
1003.06	2856
1008.89	436
1014.71	194
1020.53	230
1026.34	504
1032.14	896
1037.94	424
1043.73	202
1049.52	178
1055.3	156
1061.08	156
1066.85	184
1072.61	180
1078.37	166
1084.12	172
1089.87	184
1095.61	162
1101.34	168
1107.07	156
1112.8	142
1118.51	128
1124.22	112
1129.93	114
1135.63	110
1141.32	142
1147.01	182
1152.69	348
1158.37	338
1164.04	222
1169.71	214
1175.37	316
1181.02	546
1186.67	428
1192.31	474
1197.95	506
1203.58	446
1209.2	332
1214.82	254
1220.44	228
1226.05	204
1231.65	200
1237.25	184
1242.84	170
1248.42	180
1254	176
1259.58	180
1265.15	170
1270.71	176
1276.27	180
1281.82	184
1287.37	198
1292.91	186
1298.45	212
1303.98	214
1309.5	222
1315.02	254
1320.53	282
1326.04	300
1331.54	320
1337.04	294
1342.53	274
1348.02	264
1353.5	282
1358.98	276
1364.45	286
1369.91	282
1375.37	300
1380.82	276
1386.27	278
1391.71	254
1397.15	260
1402.58	250
1408.01	244
1413.43	232
1418.85	236
1424.26	226
1429.66	232
1435.06	260
1440.46	294
1445.85	330
1451.23	350
1456.61	276
1461.98	230
1467.35	214
1472.71	206
1478.07	186
1483.42	172
1488.77	182
1494.11	196
1499.45	176
1504.78	182
1510.11	168
1515.43	182
1520.74	176
1526.05	176
1531.36	176
1536.66	168
1541.95	176
1547.24	166
1552.52	168
1557.8	174
1563.08	170
1568.35	184
1573.61	198
1578.87	284
1584.12	410
1589.37	256
1594.61	304
1599.85	606
1605.08	576
1610.31	284
1615.53	198
1620.75	178
1625.96	164
1631.17	164
1636.37	156
1641.57	160
1646.76	160
1651.95	150
1657.13	148
1662.31	140
1667.48	140
1672.65	134
1677.81	140
1682.97	138
1688.12	132
1693.27	138
1698.41	122
1702.26	128

File: ps-ppo-6jan25-1,0000-map3_Y09_X09.txt
204.377	846
211.048	884
217.712	914
224.369	890
231.019	708
237.661	522
244.297	378
250.924	302
257.546	278
264.16	250
270.766	236
277.365	234
283.958	214
290.543	194
297.121	174
303.693	170
310.256	178
316.813	178
323.362	174
329.905	170
336.441	158
342.969	166
349.491	154
356.006	160
362.513	148
369.014	152
375.508	164
381.994	180
388.473	200
394.947	190
401.412	210
407.871	232
414.323	194
420.768	174
427.206	154
433.637	150
440.062	132
446.479	130
452.89	120
459.293	114
465.691	114
472.081	106
478.463	110
484.84	108
491.21	96
497.573	112
503.929	110
510.279	110
516.621	120
522.957	110
529.287	128
535.609	146
541.925	146
548.234	144
554.536	146
560.832	140
567.12	134
573.403	146
579.679	122
585.948	114
592.211	106
598.466	114
604.715	138
610.958	156
617.194	312
623.424	462
629.647	148
635.864	100
642.074	100
648.276	80
654.473	86
660.664	86
666.847	82
673.025	82
679.195	78
685.36	74
691.517	84
697.669	98
703.814	104
709.953	98
716.085	98
722.21	144
728.33	136
734.443	130
740.549	188
746.65	194
752.743	226
758.831	232
764.912	222
770.986	198
777.055	206
783.117	240
789.173	308
795.222	350
801.265	282
807.302	202
813.333	160
819.357	132
825.376	112
831.387	118
837.392	150
843.392	168
849.386	138
855.372	126
861.353	132
867.328	120
873.296	130
879.258	114
885.214	116
891.164	120
897.108	118
903.046	138
908.977	146
914.903	124
920.822	100
926.735	100
932.643	98
938.543	94
944.439	104
950.328	106
956.21	110
962.088	120
967.958	128
973.824	136
979.682	180
985.534	260
991.382	804
997.222	1274
1003.06	2778
1008.89	424
1014.71	190
1020.53	222
1026.34	510
1032.14	914
1037.94	408
1043.73	202
1049.52	160
1055.3	162
1061.08	160
1066.85	174
1072.61	190
1078.37	174
1084.12	160
1089.87	170
1095.61	180
1101.34	164
1107.07	144
1112.8	136
1118.51	114
1124.22	102
1129.93	120
1135.63	100
1141.32	134
1147.01	178
1152.69	366
1158.37	340
1164.04	228
1169.71	222
1175.37	306
1181.02	516
1186.67	444
1192.31	498
1197.95	500
1203.58	440
1209.2	308
1214.82	226
1220.44	220
1226.05	198
1231.65	188
1237.25	184
1242.84	174
1248.42	182
1254	176
1259.58	182
1265.15	164
1270.71	174
1276.27	180
1281.82	172
1287.37	160
1292.91	216
1298.45	200
1303.98	234
1309.5	238
1315.02	258
1320.53	278
1326.04	304
1331.54	314
1337.04	290
1342.53	260
1348.02	278
1353.5	274
1358.98	284
1364.45	288
1369.91	296
1375.37	302
1380.82	290
1386.27	260
1391.71	238
1397.15	256
1402.58	258
1408.01	240
1413.43	242
1418.85	218
1424.26	206
1429.66	228
1435.06	268
1440.46	270
1445.85	330
1451.23	342
1456.61	284
1461.98	232
1467.35	210
1472.71	194
1478.07	190
1483.42	180
1488.77	194
1494.11	196
1499.45	188
1504.78	188
1510.11	178
1515.43	180
1520.74	168
1526.05	160
1531.36	172
1536.66	172
1541.95	170
1547.24	180
1552.52	170
1557.8	172
1563.08	174
1568.35	178
1573.61	202
1578.87	274
1584.12	394
1589.37	266
1594.61	328
1599.85	612
1605.08	546
1610.31	264
1615.53	204
1620.75	184
1625.96	172
1631.17	166
1636.37	156
1641.57	160
1646.76	162
1651.95	158
1657.13	144
1662.31	138
1667.48	130
1672.65	128
1677.81	142
1682.97	128
1688.12	128
1693.27	128
1698.41	130
1702.26	120

File: ps-ppo-6jan25-1,0000-map3_Y09_X10.txt
204.377	840
211.048	860
217.712	928
224.369	884
231.019	700
237.661	562
244.297	364
250.924	322
257.546	278
264.16	260
270.766	256
277.365	236
283.958	216
290.543	208
297.121	172
303.693	176
310.256	182
316.813	170
323.362	178
329.905	174
336.441	178
342.969	170
349.491	172
356.006	148
362.513	160
369.014	150
375.508	164
381.994	166
388.473	176
394.947	198
401.412	210
407.871	226
414.323	202
420.768	166
427.206	158
433.637	142
440.062	144
446.479	132
452.89	116
459.293	110
465.691	104
472.081	108
478.463	116
484.84	106
491.21	104
497.573	108
503.929	104
510.279	106
516.621	104
522.957	122
529.287	128
535.609	144
541.925	156
548.234	144
554.536	152
560.832	136
567.12	136
573.403	134
579.679	110
585.948	106
592.211	106
598.466	120
604.715	134
610.958	152
617.194	322
623.424	456
629.647	146
635.864	112
642.074	82
648.276	84
654.473	82
660.664	76
666.847	84
673.025	88
679.195	74
685.36	80
691.517	80
697.669	88
703.814	98
709.953	110
716.085	96
722.21	136
728.33	120
734.443	132
740.549	184
746.65	190
752.743	212
758.831	234
764.912	214
770.986	212
777.055	206
783.117	240
789.173	306
795.222	342
801.265	288
807.302	204
813.333	168
819.357	116
825.376	112
831.387	120
837.392	146
843.392	162
849.386	144
855.372	128
861.353	126
867.328	120
873.296	118
879.258	118
885.214	124
891.164	106
897.108	116
903.046	144
908.977	142
914.903	118
920.822	114
926.735	90
932.643	106
938.543	96
944.439	104
950.328	104
956.21	108
962.088	116
967.958	126
973.824	140
979.682	180
985.534	288
991.382	778
997.222	1260
1003.06	2822
1008.89	454
1014.71	172
1020.53	222
1026.34	480
1032.14	908
1037.94	394
1043.73	204
1049.52	174
1055.3	150
1061.08	168
1066.85	176
1072.61	180
1078.37	156
1084.12	176
1089.87	166
1095.61	174
1101.34	176
1107.07	144
1112.8	128
1118.51	110
1124.22	104
1129.93	116
1135.63	116
1141.32	126
1147.01	166
1152.69	356
1158.37	328
1164.04	230
1169.71	216
1175.37	312
1181.02	528
1186.67	452
1192.31	500
1197.95	510
1203.58	442
1209.2	314
1214.82	248
1220.44	224
1226.05	208
1231.65	196
1237.25	174
1242.84	162
1248.42	174
1254	184
1259.58	166
1265.15	174
1270.71	178
1276.27	168
1281.82	186
1287.37	194
1292.91	210
1298.45	208
1303.98	226
1309.5	228
1315.02	244
1320.53	286
1326.04	310
1331.54	314
1337.04	280
1342.53	292
1348.02	262
1353.5	286
1358.98	276
1364.45	274
1369.91	294
1375.37	286
1380.82	284
1386.27	252
1391.71	250
1397.15	248
1402.58	258
1408.01	234
1413.43	238
1418.85	228
1424.26	232
1429.66	234
1435.06	246
1440.46	308
1445.85	326
1451.23	348
1456.61	284
1461.98	216
1467.35	216
1472.71	204
1478.07	188
1483.42	190
1488.77	198
1494.11	188
1499.45	190
1504.78	166
1510.11	182
1515.43	168
1520.74	170
1526.05	176
1531.36	174
1536.66	178
1541.95	162
1547.24	160
1552.52	172
1557.8	180
1563.08	170
1568.35	172
1573.61	194
1578.87	280
1584.12	398
1589.37	262
1594.61	318
1599.85	638
1605.08	554
1610.31	270
1615.53	204
1620.75	190
1625.96	166
1631.17	156
1636.37	160
1641.57	158
1646.76	168
1651.95	160
1657.13	142
1662.31	130
1667.48	142
1672.65	136
1677.81	136
1682.97	130
1688.12	130
1693.27	134
1698.41	124
1702.26	128