Folder: NRC_SU25_Spectral_Classification/Mixture_Classification/Jesse_Dataset_v2/Pure Raman/Polystyrene/785nm (part 6)

File: ps-ppo-6jan25-1,0000-map3_Y06_X02.txt
204.377	814
211.048	854
217.712	928
224.369	882
231.019	722
237.661	526
244.297	362
250.924	308
257.546	282
264.16	254
270.766	236
277.365	230
283.958	214
290.543	194
297.121	170
303.693	164
310.256	156
316.813	178
323.362	170
329.905	166
336.441	168
342.969	158
349.491	154
356.006	154
362.513	148
369.014	142
375.508	162
381.994	164
388.473	190
394.947	180
401.412	214
407.871	230
414.323	198
420.768	168
427.206	150
433.637	144
440.062	116
446.479	130
452.89	114
459.293	108
465.691	104
472.081	116
478.463	98
484.84	98
491.21	92
497.573	98
503.929	114
510.279	104
516.621	100
522.957	108
529.287	114
535.609	140
541.925	154
548.234	146
554.536	132
560.832	136
567.12	130
573.403	146
579.679	106
585.948	114
592.211	110
598.466	110
604.715	142
610.958	134
617.194	302
623.424	460
629.647	148
635.864	102
642.074	86
648.276	80
654.473	76
660.664	74
666.847	72
673.025	78
679.195	80
685.36	70
691.517	72
697.669	78
703.814	102
709.953	98
716.085	94
722.21	138
728.33	132
734.443	132
740.549	172
746.65	176
752.743	204
758.831	222
764.912	220
770.986	210
777.055	190
783.117	244
789.173	294
795.222	354
801.265	298
807.302	196
813.333	168
819.357	126
825.376	104
831.387	114
837.392	140
843.392	148
849.386	136
855.372	122
861.353	108
867.328	116
873.296	124
879.258	124
885.214	108
891.164	116
897.108	108
903.046	136
908.977	146
914.903	116
920.822	108
926.735	90
932.643	94
938.543	104
944.439	102
950.328	92
956.21	104
962.088	122
967.958	120
973.824	138
979.682	168
985.534	276
991.382	744
997.222	1182
1003.06	2818
1008.89	446
1014.71	194
1020.53	214
1026.34	482
1032.14	902
1037.94	394
1043.73	200
1049.52	164
1055.3	140
1061.08	158
1066.85	168
1072.61	168
1078.37	156
1084.12	166
1089.87	166
1095.61	172
1101.34	168
1107.07	138
1112.8	126
1118.51	106
1124.22	104
1129.93	104
1135.63	102
1141.32	134
1147.01	166
1152.69	360
1158.37	330
1164.04	222
1169.71	220
1175.37	290
1181.02	524
1186.67	416
1192.31	462
1197.95	502
1203.58	438
1209.2	296
1214.82	234
1220.44	196
1226.05	190
1231.65	174
1237.25	160
1242.84	162
1248.42	172
1254	160
1259.58	166
1265.15	168
1270.71	170
1276.27	180
1281.82	166
1287.37	170
1292.91	192
1298.45	196
1303.98	216
1309.5	212
1315.02	228
1320.53	252
1326.04	286
1331.54	292
1337.04	270
1342.53	262
1348.02	252
1353.5	254
1358.98	264
1364.45	262
1369.91	260
1375.37	258
1380.82	264
1386.27	242
1391.71	232
1397.15	220
1402.58	220
1408.01	216
1413.43	222
1418.85	230
1424.26	216
1429.66	220
1435.06	248
1440.46	286
1445.85	312
1451.23	312
1456.61	268
1461.98	210
1467.35	184
1472.71	194
1478.07	178
1483.42	166
1488.77	166
1494.11	182
1499.45	170
1504.78	166
1510.11	164
1515.43	172
1520.74	156
1526.05	158
1531.36	162
1536.66	164
1541.95	142
1547.24	160
1552.52	150
1557.8	160
1563.08	160
1568.35	172
1573.61	206
1578.87	274
1584.12	400
1589.37	248
1594.61	322
1599.85	600
1605.08	554
1610.31	280
1615.53	192
1620.75	170
1625.96	154
1631.17	148
1636.37	148
1641.57	148
1646.76	148
1651.95	142
1657.13	134
1662.31	122
1667.48	132
1672.65	136
1677.81	132
1682.97	126
1688.12	126
1693.27	114
1698.41	128
1702.26	116

File: ps-ppo-6jan25-1,0000-map3_Y06_X04.txt
204.377	844
211.048	882
217.712	924
224.369	888
231.019	716
237.661	564
244.297	400
250.924	326
257.546	288
264.16	272
270.766	258
277.365	238
283.958	232
290.543	196
297.121	184
303.693	186
310.256	180
316.813	176
323.362	176
329.905	166
336.441	176
342.969	178
349.491	174
356.006	158
362.513	158
369.014	166
375.508	182
381.994	182
388.473	188
394.947	210
401.412	232
407.871	236
414.323	212
420.768	194
427.206	150
433.637	168
440.062	146
446.479	140
452.89	130
459.293	118
465.691	126
472.081	126
478.463	120
484.84	122
491.21	108
497.573	118
503.929	124
510.279	118
516.621	126
522.957	138
529.287	140
535.609	158
541.925	164
548.234	168
554.536	166
560.832	148
567.12	150
573.403	150
579.679	138
585.948	126
592.211	126
598.466	132
604.715	144
610.958	166
617.194	318
623.424	472
629.647	174
635.864	118
642.074	92
648.276	88
654.473	88
660.664	86
666.847	84
673.025	82
679.195	92
685.36	74
691.517	96
697.669	106
703.814	112
709.953	92
716.085	90
722.21	142
728.33	142
734.443	136
740.549	192
746.65	196
752.743	222
758.831	248
764.912	232
770.986	204
777.055	200
783.117	246
789.173	320
795.222	358
801.265	284
807.302	204
813.333	168
819.357	140
825.376	118
831.387	120
837.392	154
843.392	168
849.386	136
855.372	132
861.353	132
867.328	124
873.296	118
879.258	110
885.214	126
891.164	110
897.108	132
903.046	146
908.977	150
914.903	112
920.822	98
926.735	108
932.643	102
938.543	100
944.439	100
950.328	100
956.21	110
962.088	132
967.958	130
973.824	134
979.682	180
985.534	294
991.382	744
997.222	1200
1003.06	2870
1008.89	444
1014.71	200
1020.53	222
1026.34	502
1032.14	934
1037.94	410
1043.73	216
1049.52	156
1055.3	144
1061.08	150
1066.85	184
1072.61	188
1078.37	158
1084.12	162
1089.87	154
1095.61	184
1101.34	154
1107.07	144
1112.8	142
1118.51	110
1124.22	110
1129.93	112
1135.63	120
1141.32	130
1147.01	168
1152.69	346
1158.37	342
1164.04	214
1169.71	214
1175.37	300
1181.02	514
1186.67	442
1192.31	478
1197.95	502
1203.58	456
1209.2	324
1214.82	222
1220.44	202
1226.05	204
1231.65	176
1237.25	148
1242.84	170
1248.42	162
1254	160
1259.58	156
1265.15	164
1270.71	176
1276.27	164
1281.82	172
1287.37	176
1292.91	196
1298.45	192
1303.98	220
1309.5	224
1315.02	234
1320.53	270
1326.04	274
1331.54	296
1337.04	268
1342.53	266
1348.02	272
1353.5	276
1358.98	274
1364.45	272
1369.91	268
1375.37	278
1380.82	268
1386.27	246
1391.71	240
1397.15	236
1402.58	232
1408.01	228
1413.43	226
1418.85	208
1424.26	218
1429.66	226
1435.06	260
1440.46	268
1445.85	324
1451.23	326
1456.61	282
1461.98	208
1467.35	198
1472.71	190
1478.07	188
1483.42	186
1488.77	184
1494.11	184
1499.45	180
1504.78	174
1510.11	162
1515.43	164
1520.74	164
1526.05	170
1531.36	170
1536.66	166
1541.95	170
1547.24	160
1552.52	170
1557.8	168
1563.08	160
1568.35	168
1573.61	196
1578.87	270
1584.12	388
1589.37	258
1594.61	324
1599.85	596
1605.08	542
1610.31	278
1615.53	214
1620.75	162
1625.96	166
1631.17	154
1636.37	152
1641.57	162
1646.76	148
1651.95	140
1657.13	136
1662.31	128
1667.48	134
1672.65	134
1677.81	126
1682.97	126
1688.12	136
1693.27	116
1698.41	118
1702.26	122

File: ps-ppo-6jan25-1,0000-map3_Y06_X05.txt
204.377	838
211.048	906
217.712	918
224.369	872
231.019	738
237.661	562
244.297	380
250.924	310
257.546	286
264.16	264
270.766	250
277.365	236
283.958	208
290.543	184
297.121	182
303.693	178
310.256	178
316.813	158
323.362	186
329.905	170
336.441	166
342.969	174
349.491	154
356.006	152
362.513	158
369.014	162
375.508	170
381.994	174
388.473	182
394.947	202
401.412	228
407.871	238
414.323	198
420.768	170
427.206	166
433.637	164
440.062	148
446.479	134
452.89	124
459.293	116
465.691	114
472.081	122
478.463	110
484.84	112
491.21	110
497.573	108
503.929	124
510.279	118
516.621	122
522.957	120
529.287	112
535.609	156
541.925	162
548.234	158
554.536	166
560.832	136
567.12	146
573.403	152
579.679	138
585.948	124
592.211	114
598.466	124
604.715	136
610.958	152
617.194	326
623.424	474
629.647	156
635.864	114
642.074	92
648.276	94
654.473	88
660.664	80
666.847	82
673.025	76
679.195	72
685.36	86
691.517	86
697.669	98
703.814	102
709.953	104
716.085	96
722.21	146
728.33	134
734.443	148
740.549	178
746.65	198
752.743	200
758.831	244
764.912	222
770.986	200
777.055	214
783.117	246
789.173	320
795.222	356
801.265	296
807.302	198
813.333	158
819.357	134
825.376	120
831.387	120
837.392	156
843.392	158
849.386	136
855.372	122
861.353	132
867.328	126
873.296	120
879.258	120
885.214	118
891.164	118
897.108	128
903.046	138
908.977	138
914.903	120
920.822	102
926.735	92
932.643	104
938.543	96
944.439	104
950.328	98
956.21	98
962.088	122
967.958	124
973.824	132
979.682	184
985.534	282
991.382	788
997.222	1228
1003.06	2862
1008.89	440
1014.71	204
1020.53	218
1026.34	494
1032.14	892
1037.94	398
1043.73	212
1049.52	166
1055.3	164
1061.08	160
1066.85	174
1072.61	186
1078.37	170
1084.12	172
1089.87	162
1095.61	178
1101.34	174
1107.07	140
1112.8	132
1118.51	118
1124.22	108
1129.93	112
1135.63	110
1141.32	136
1147.01	176
1152.69	360
1158.37	348
1164.04	206
1169.71	212
1175.37	298
1181.02	526
1186.67	438
1192.31	484
1197.95	514
1203.58	432
1209.2	294
1214.82	228
1220.44	206
1226.05	186
1231.65	180
1237.25	174
1242.84	168
1248.42	174
1254	172
1259.58	160
1265.15	178
1270.71	168
1276.27	176
1281.82	172
1287.37	170
1292.91	182
1298.45	212
1303.98	224
1309.5	228
1315.02	242
1320.53	282
1326.04	288
1331.54	306
1337.04	278
1342.53	264
1348.02	280
1353.5	272
1358.98	270
1364.45	276
1369.91	284
1375.37	296
1380.82	258
1386.27	246
1391.71	254
1397.15	232
1402.58	228
1408.01	236
1413.43	220
1418.85	204
1424.26	204
1429.66	218
1435.06	244
1440.46	270
1445.85	322
1451.23	336
1456.61	274
1461.98	216
1467.35	202
1472.71	186
1478.07	184
1483.42	178
1488.77	198
1494.11	200
1499.45	186
1504.78	176
1510.11	174
1515.43	162
1520.74	164
1526.05	168
1531.36	172
1536.66	152
1541.95	166
1547.24	160
1552.52	158
1557.8	152
1563.08	158
1568.35	172
1573.61	200
1578.87	270
1584.12	408
1589.37	248
1594.61	320
1599.85	642
1605.08	554
1610.31	264
1615.53	212
1620.75	176
1625.96	162
1631.17	164
1636.37	148
1641.57	166
1646.76	160
1651.95	150
1657.13	138
1662.31	134
1667.48	130
1672.65	132
1677.81	132
1682.97	126
1688.12	132
1693.27	122
1698.41	126
1702.26	126

File: ps-ppo-6jan25-1,0000-map3_Y06_X06.txt
204.377	828
211.048	912
217.712	896
224.369	848
231.019	714
237.661	544
244.297	380
250.924	302
257.546	284
264.16	256
270.766	254
277.365	226
283.958	198
290.543	182
297.121	178
303.693	166
310.256	176
316.813	174
323.362	170
329.905	180
336.441	172
342.969	168
349.491	152
356.006	140
362.513	150
369.014	154
375.508	176
381.994	174
388.473	190
394.947	190
401.412	214
407.871	236
414.323	198
420.768	164
427.206	150
433.637	128
440.062	136
446.479	144
452.89	114
459.293	118
465.691	116
472.081	102
478.463	100
484.84	100
491.21	102
497.573	102
503.929	120
510.279	104
516.621	118
522.957	114
529.287	128
535.609	146
541.925	158
548.234	142
554.536	132
560.832	134
567.12	136
573.403	142
579.679	112
585.948	116
592.211	104
598.466	106
604.715	138
610.958	144
617.194	332
623.424	480
629.647	150
635.864	98
642.074	92
648.276	82
654.473	72
660.664	84
666.847	78
673.025	82
679.195	72
685.36	80
691.517	78
697.669	84
703.814	104
709.953	94
716.085	96
722.21	128
728.33	124
734.443	142
740.549	186
746.65	192
752.743	208
758.831	236
764.912	230
770.986	204
777.055	208
783.117	238
789.173	304
795.222	348
801.265	270
807.302	190
813.333	166
819.357	128
825.376	106
831.387	112
837.392	138
843.392	162
849.386	128
855.372	120
861.353	124
867.328	132
873.296	120
879.258	118
885.214	122
891.164	102
897.108	118
903.046	140
908.977	150
914.903	116
920.822	92
926.735	94
932.643	94
938.543	94
944.439	98
950.328	102
956.21	100
962.088	124
967.958	116
973.824	132
979.682	180
985.534	280
991.382	770
997.222	1222
1003.06	2880
1008.89	472
1014.71	194
1020.53	218
1026.34	482
1032.14	860
1037.94	404
1043.73	206
1049.52	170
1055.3	152
1061.08	156
1066.85	172
1072.61	176
1078.37	162
1084.12	168
1089.87	168
1095.61	178
1101.34	178
1107.07	150
1112.8	126
1118.51	126
1124.22	102
1129.93	108
1135.63	112
1141.32	138
1147.01	160
1152.69	342
1158.37	334
1164.04	206
1169.71	222
1175.37	304
1181.02	514
1186.67	440
1192.31	478
1197.95	516
1203.58	452
1209.2	314
1214.82	232
1220.44	218
1226.05	190
1231.65	190
1237.25	182
1242.84	164
1248.42	172
1254	174
1259.58	168
1265.15	166
1270.71	162
1276.27	168
1281.82	174
1287.37	180
1292.91	192
1298.45	202
1303.98	210
1309.5	208
1315.02	254
1320.53	284
1326.04	302
1331.54	304
1337.04	302
1342.53	268
1348.02	260
1353.5	272
1358.98	260
1364.45	266
1369.91	280
1375.37	278
1380.82	268
1386.27	262
1391.71	238
1397.15	242
1402.58	236
1408.01	234
1413.43	224
1418.85	222
1424.26	220
1429.66	224
1435.06	246
1440.46	294
1445.85	312
1451.23	330
1456.61	282
1461.98	224
1467.35	216
1472.71	188
1478.07	188
1483.42	182
1488.77	192
1494.11	200
1499.45	186
1504.78	162
1510.11	172
1515.43	170
1520.74	178
1526.05	174
1531.36	156
1536.66	168
1541.95	164
1547.24	154
1552.52	162
1557.8	170
1563.08	178
1568.35	168
1573.61	192
1578.87	282
1584.12	400
1589.37	260
1594.61	304
1599.85	600
1605.08	566
1610.31	276
1615.53	210
1620.75	182
1625.96	158
1631.17	154
1636.37	156
1641.57	154
1646.76	164
1651.95	138
1657.13	138
1662.31	140
1667.48	126
1672.65	146
1677.81	138
1682.97	128
1688.12	134
1693.27	124
1698.41	124
1702.26	112

File: ps-ppo-6jan25-1,0000-map3_Y06_X08.txt
204.377	874
211.048	900
217.712	950
224.369	878
231.019	716
237.661	538
244.297	366
250.924	320
257.546	302
264.16	260
270.766	244
277.365	244
283.958	208
290.543	188
297.121	172
303.693	170
310.256	178
316.813	192
323.362	176
329.905	180
336.441	156
342.969	170
349.491	154
356.006	150
362.513	172
369.014	150
375.508	156
381.994	178
388.473	186
394.947	192
401.412	220
407.871	228
414.323	208
420.768	182
427.206	154
433.637	158
440.062	138
446.479	138
452.89	122
459.293	112
465.691	108
472.081	110
478.463	102
484.84	104
491.21	110
497.573	112
503.929	120
510.279	116
516.621	110
522.957	136
529.287	118
535.609	146
541.925	156
548.234	154
554.536	140
560.832	132
567.12	128
573.403	156
579.679	130
585.948	114
592.211	116
598.466	124
604.715	130
610.958	152
617.194	340
623.424	484
629.647	146
635.864	104
642.074	90
648.276	76
654.473	84
660.664	74
666.847	82
673.025	76
679.195	80
685.36	82
691.517	80
697.669	88
703.814	100
709.953	94
716.085	92
722.21	140
728.33	132
734.443	138
740.549	190
746.65	198
752.743	192
758.831	236
764.912	218
770.986	210
777.055	214
783.117	238
789.173	278
795.222	354
801.265	290
807.302	194
813.333	168
819.357	134
825.376	122
831.387	124
837.392	162
843.392	154
849.386	144
855.372	124
861.353	130
867.328	134
873.296	138
879.258	110
885.214	116
891.164	104
897.108	132
903.046	146
908.977	152
914.903	126
920.822	102
926.735	108
932.643	104
938.543	102
944.439	96
950.328	108
956.21	102
962.088	130
967.958	136
973.824	148
979.682	190
985.534	280
991.382	778
997.222	1248
1003.06	2814
1008.89	420
1014.71	200
1020.53	234
1026.34	500
1032.14	878
1037.94	416
1043.73	204
1049.52	176
1055.3	166
1061.08	160
1066.85	168
1072.61	174
1078.37	170
1084.12	174
1089.87	158
1095.61	160
1101.34	160
1107.07	152
1112.8	138
1118.51	126
1124.22	116
1129.93	112
1135.63	120
1141.32	136
1147.01	178
1152.69	370
1158.37	344
1164.04	218
1169.71	212
1175.37	312
1181.02	492
1186.67	454
1192.31	484
1197.95	520
1203.58	456
1209.2	344
1214.82	236
1220.44	220
1226.05	212
1231.65	198
1237.25	178
1242.84	168
1248.42	184
1254	172
1259.58	180
1265.15	182
1270.71	176
1276.27	182
1281.82	180
1287.37	182
1292.91	196
1298.45	218
1303.98	228
1309.5	234
1315.02	264
1320.53	272
1326.04	324
1331.54	314
1337.04	284
1342.53	268
1348.02	270
1353.5	278
1358.98	262
1364.45	288
1369.91	300
1375.37	286
1380.82	272
1386.27	244
1391.71	252
1397.15	236
1402.58	238
1408.01	228
1413.43	234
1418.85	228
1424.26	216
1429.66	248
1435.06	248
1440.46	286
1445.85	334
1451.23	340
1456.61	278
1461.98	228
1467.35	210
1472.71	192
1478.07	190
1483.42	194
1488.77	186
1494.11	182
1499.45	184
1504.78	174
1510.11	172
1515.43	176
1520.74	156
1526.05	166
1531.36	174
1536.66	162
1541.95	158
1547.24	178
1552.52	170
1557.8	170
1563.08	182
1568.35	172
1573.61	210
1578.87	288
1584.12	404
1589.37	262
1594.61	318
1599.85	612
1605.08	544
1610.31	266
1615.53	214
1620.75	188
1625.96	174
1631.17	166
1636.37	164
1641.57	158
1646.76	160
1651.95	156
1657.13	146
1662.31	132
1667.48	138
1672.65	126
1677.81	134
1682.97	136
1688.12	128
1693.27	126
1698.41	124
1702.26	126

File: ps-ppo-6jan25-1,0000-map3_Y06_X09.txt
204.377	848
211.048	862
217.712	944
224.369	882
231.019	718
237.661	552
244.297	376
250.924	310
257.546	298
264.16	266
270.766	250
277.365	242
283.958	222
290.543	192
297.121	186
303.693	184
310.256	182
316.813	178
323.362	174
329.905	180
336.441	172
342.969	168
349.491	162
356.006	160
362.513	156
369.014	158
375.508	164
381.994	180
388.473	186
394.947	192
401.412	242
407.871	242
414.323	188
420.768	176
427.206	162
433.637	156
440.062	148
446.479	140
452.89	122
459.293	110
465.691	110
472.081	120
478.463	114
484.84	108
491.21	108
497.573	104
503.929	106
510.279	110
516.621	112
522.957	122
529.287	124
535.609	142
541.925	160
548.234	142
554.536	144
560.832	140
567.12	134
573.403	150
579.679	130
585.948	100
592.211	120
598.466	108
604.715	138
610.958	146
617.194	314
623.424	488
629.647	152
635.864	108
642.074	92
648.276	88
654.473	90
660.664	86
666.847	82
673.025	92
679.195	82
685.36	80
691.517	82
697.669	92
703.814	100
709.953	106
716.085	100
722.21	136
728.33	136
734.443	140
740.549	178
746.65	186
752.743	224
758.831	244
764.912	220
770.986	202
777.055	204
783.117	238
789.173	306
795.222	350
801.265	270
807.302	200
813.333	162
819.357	128
825.376	114
831.387	124
837.392	146
843.392	168
849.386	142
855.372	136
861.353	134
867.328	134
873.296	130
879.258	120
885.214	120
891.164	112
897.108	120
903.046	136
908.977	144
914.903	116
920.822	108
926.735	90
932.643	98
938.543	112
944.439	112
950.328	112
956.21	102
962.088	128
967.958	136
973.824	138
979.682	198
985.534	264
991.382	794
997.222	1284
1003.06	2886
1008.89	442
1014.71	184
1020.53	218
1026.34	502
1032.14	876
1037.94	410
1043.73	216
1049.52	166
1055.3	168
1061.08	170
1066.85	180
1072.61	178
1078.37	172
1084.12	174
1089.87	154
1095.61	172
1101.34	180
1107.07	146
1112.8	134
1118.51	122
1124.22	118
1129.93	114
1135.63	120
1141.32	150
1147.01	178
1152.69	348
1158.37	342
1164.04	216
1169.71	222
1175.37	314
1181.02	542
1186.67	430
1192.31	498
1197.95	512
1203.58	444
1209.2	332
1214.82	240
1220.44	226
1226.05	220
1231.65	194
1237.25	168
1242.84	176
1248.42	166
1254	162
1259.58	168
1265.15	176
1270.71	176
1276.27	178
1281.82	188
1287.37	190
1292.91	194
1298.45	212
1303.98	238
1309.5	228
1315.02	248
1320.53	286
1326.04	308
1331.54	294
1337.04	304
1342.53	278
1348.02	266
1353.5	264
1358.98	284
1364.45	276
1369.91	292
1375.37	302
1380.82	276
1386.27	256
1391.71	244
1397.15	224
1402.58	242
1408.01	256
1413.43	224
1418.85	222
1424.26	234
1429.66	232
1435.06	240
1440.46	280
1445.85	326
1451.23	336
1456.61	270
1461.98	224
1467.35	208
1472.71	190
1478.07	194
1483.42	192
1488.77	196
1494.11	192
1499.45	180
1504.78	180
1510.11	182
1515.43	182
1520.74	174
1526.05	170
1531.36	176
1536.66	164
1541.95	172
1547.24	176
1552.52	168
1557.8	166
1563.08	168
1568.35	174
1573.61	202
1578.87	306
1584.12	402
1589.37	266
1594.61	318
1599.85	634
1605.08	548
1610.31	288
1615.53	198
1620.75	186
1625.96	162
1631.17	164
1636.37	146
1641.57	164
1646.76	164
1651.95	162
1657.13	150
1662.31	140
1667.48	124
1672.65	144
1677.81	138
1682.97	130
1688.12	128
1693.27	134
1698.41	126
1702.26	128

File: ps-ppo-6jan25-1,0000-map3_Y06_X10.txt
204.377	820
211.048	898
217.712	910
224.369	852
231.019	714
237.661	516
244.297	402
250.924	320
257.546	256
264.16	274
270.766	258
277.365	246
283.958	214
290.543	200
297.121	186
303.693	170
310.256	176
316.813	168
323.362	172
329.905	162
336.441	180
342.969	168
349.491	162
356.006	160
362.513	170
369.014	174
375.508	164
381.994	184
388.473	178
394.947	204
401.412	220
407.871	226
414.323	206
420.768	184
427.206	162
433.637	152
440.062	132
446.479	126
452.89	134
459.293	120
465.691	106
472.081	116
478.463	114
484.84	108
491.21	104
497.573	114
503.929	126
510.279	110
516.621	108
522.957	116
529.287	118
535.609	150
541.925	150
548.234	152
554.536	138
560.832	134
567.12	136
573.403	136
579.679	120
585.948	108
592.211	118
598.466	116
604.715	134
610.958	144
617.194	342
623.424	484
629.647	142
635.864	108
642.074	100
648.276	82
654.473	84
660.664	78
666.847	82
673.025	82
679.195	78
685.36	74
691.517	80
697.669	96
703.814	106
709.953	96
716.085	96
722.21	142
728.33	140
734.443	136
740.549	176
746.65	190
752.743	218
758.831	240
764.912	226
770.986	204
777.055	212
783.117	240
789.173	314
795.222	350
801.265	278
807.302	192
813.333	164
819.357	134
825.376	112
831.387	124
837.392	140
843.392	162
849.386	136
855.372	124
861.353	120
867.328	122
873.296	126
879.258	120
885.214	112
891.164	112
897.108	124
903.046	148
908.977	146
914.903	116
920.822	100
926.735	102
932.643	96
938.543	106
944.439	106
950.328	106
956.21	102
962.088	122
967.958	124
973.824	136
979.682	198
985.534	276
991.382	800
997.222	1252
1003.06	2848
1008.89	446
1014.71	194
1020.53	224
1026.34	498
1032.14	886
1037.94	398
1043.73	202
1049.52	170
1055.3	150
1061.08	168
1066.85	184
1072.61	168
1078.37	176
1084.12	166
1089.87	172
1095.61	172
1101.34	170
1107.07	136
1112.8	134
1118.51	130
1124.22	108
1129.93	112
1135.63	124
1141.32	128
1147.01	170
1152.69	360
1158.37	344
1164.04	194
1169.71	218
1175.37	314
1181.02	506
1186.67	426
1192.31	472
1197.95	512
1203.58	462
1209.2	318
1214.82	232
1220.44	216
1226.05	196
1231.65	188
1237.25	192
1242.84	172
1248.42	174
1254	168
1259.58	180
1265.15	178
1270.71	172
1276.27	186
1281.82	188
1287.37	170
1292.91	202
1298.45	214
1303.98	226
1309.5	242
1315.02	254
1320.53	282
1326.04	292
1331.54	308
1337.04	310
1342.53	282
1348.02	268
1353.5	272
1358.98	274
1364.45	272
1369.91	294
1375.37	294
1380.82	282
1386.27	262
1391.71	244
1397.15	236
1402.58	232
1408.01	246
1413.43	242
1418.85	244
1424.26	236
1429.66	240
1435.06	252
1440.46	290
1445.85	342
1451.23	350
1456.61	286
1461.98	228
1467.35	220
1472.71	190
1478.07	194
1483.42	192
1488.77	174
1494.11	190
1499.45	190
1504.78	188
1510.11	170
1515.43	180
1520.74	172
1526.05	172
1531.36	172
1536.66	166
1541.95	166
1547.24	170
1552.52	168
1557.8	178
1563.08	172
1568.35	182
1573.61	190
1578.87	286
1584.12	398
1589.37	264
1594.61	334
1599.85	616
1605.08	562
1610.31	256
1615.53	200
1620.75	192
1625.96	180
1631.17	162
1636.37	156
1641.57	156
1646.76	154
1651.95	154
1657.13	142
1662.31	134
1667.48	138
1672.65	142
1677.81	126
1682.97	146
1688.12	116
1693.27	134
1698.41	128
1702.26	130

File: ps-ppo-6jan25-1,0000-map3_Y07_X00.txt
204.377	856
211.048	878
217.712	896
224.369	868
231.019	728
237.661	550
244.297	394
250.924	306
257.546	282
264.16	266
270.766	250
277.365	234
283.958	198
290.543	192
297.121	178
303.693	176
310.256	172
316.813	176
323.362	180
329.905	170
336.441	164
342.969	172
349.491	148
356.006	154
362.513	144
369.014	152
375.508	164
381.994	178
388.473	186
394.947	178
401.412	224
407.871	238
414.323	198
420.768	186
427.206	158
433.637	144
440.062	138
446.479	124
452.89	114
459.293	110
465.691	108
472.081	102
478.463	104
484.84	108
491.21	96
497.573	106
503.929	118
510.279	96
516.621	112
522.957	110
529.287	134
535.609	134
541.925	154
548.234	142
554.536	140
560.832	128
567.12	132
573.403	142
579.679	118
585.948	114
592.211	108
598.466	110
604.715	136
610.958	150
617.194	320
623.424	446
629.647	156
635.864	110
642.074	82
648.276	94
654.473	80
660.664	76
666.847	78
673.025	76
679.195	78
685.36	72
691.517	76
697.669	90
703.814	104
709.953	98
716.085	102
722.21	134
728.33	132
734.443	124
740.549	172
746.65	178
752.743	210
758.831	218
764.912	218
770.986	208
777.055	190
783.117	248
789.173	304
795.222	354
801.265	274
807.302	190
813.333	146
819.357	122
825.376	110
831.387	116
837.392	152
843.392	154
849.386	138
855.372	120
861.353	128
867.328	122
873.296	114
879.258	112
885.214	114
891.164	114
897.108	122
903.046	148
908.977	146
914.903	110
920.822	108
926.735	104
932.643	100
938.543	92
944.439	98
950.328	102
956.21	108
962.088	118
967.958	120
973.824	142
979.682	188
985.534	276
991.382	736
997.222	1196
1003.06	2860
1008.89	442
1014.71	190
1020.53	234
1026.34	496
1032.14	882
1037.94	396
1043.73	206
1049.52	158
1055.3	150
1061.08	166
1066.85	170
1072.61	182
1078.37	168
1084.12	168
1089.87	162
1095.61	170
1101.34	160
1107.07	138
1112.8	140
1118.51	116
1124.22	116
1129.93	110
1135.63	110
1141.32	132
1147.01	164
1152.69	356
1158.37	348
1164.04	212
1169.71	218
1175.37	298
1181.02	520
1186.67	454
1192.31	480
1197.95	482
1203.58	440
1209.2	320
1214.82	222
1220.44	198
1226.05	210
1231.65	184
1237.25	164
1242.84	172
1248.42	170
1254	164
1259.58	172
1265.15	156
1270.71	146
1276.27	164
1281.82	170
1287.37	186
1292.91	188
1298.45	210
1303.98	210
1309.5	210
1315.02	240
1320.53	272
1326.04	270
1331.54	294
1337.04	284
1342.53	264
1348.02	252
1353.5	264
1358.98	264
1364.45	262
1369.91	256
1375.37	268
1380.82	242
1386.27	236
1391.71	228
1397.15	214
1402.58	232
1408.01	220
1413.43	210
1418.85	202
1424.26	212
1429.66	216
1435.06	248
1440.46	264
1445.85	316
1451.23	336
1456.61	262
1461.98	214
1467.35	186
1472.71	176
1478.07	176
1483.42	186
1488.77	166
1494.11	196
1499.45	158
1504.78	162
1510.11	168
1515.43	158
1520.74	162
1526.05	154
1531.36	166
1536.66	156
1541.95	158
1547.24	164
1552.52	160
1557.8	152
1563.08	160
1568.35	180
1573.61	190
1578.87	266
1584.12	384
1589.37	248
1594.61	306
1599.85	594
1605.08	558
1610.31	288
1615.53	192
1620.75	168
1625.96	148
1631.17	150
1636.37	158
1641.57	136
1646.76	144
1651.95	154
1657.13	132
1662.31	130
1667.48	134
1672.65	138
1677.81	126
1682.97	118
1688.12	124
1693.27	124
1698.41	118
1702.26	120