Folder: NRC_SU25_Spectral_Classification/Mixture_Classification/Jesse_Dataset_v2/Pure Raman/Polypropylene oxide/633nm (part 10)

File: ps-ppo-7jan25-0,0000-map2_Y10_X10.txt
182.393	682
192.79	558
203.174	512
213.542	450
223.897	562
234.238	1110
244.566	812
254.878	468
265.178	328
275.463	282
285.734	354
295.992	574
306.236	462
316.467	374
326.684	372
336.887	394
347.075	380
357.251	362
367.413	336
377.562	332
387.697	264
397.819	268
407.926	296
418.02	344
428.101	254
438.169	222
448.223	202
458.264	206
468.291	242
478.306	392
488.307	442
498.294	244
508.269	270
518.23	328
528.177	390
538.113	740
548.034	440
557.942	468
567.838	2312
577.72	1392
587.589	590
597.446	422
607.289	274
617.119	252
626.936	286
636.741	336
646.533	254
656.313	226
666.078	222
675.831	194
685.571	196
695.299	192
705.014	214
714.716	276
724.406	230
734.082	248
743.746	298
753.398	318
763.037	228
772.664	244
782.278	252
791.879	232
801.467	228
811.044	246
820.608	272
830.16	758
839.699	408
849.226	276
858.741	256
868.243	236
877.731	232
887.209	208
896.674	220
906.128	206
915.569	204
924.997	230
934.414	220
943.818	286
953.211	498
962.59	864
971.958	452
981.314	292
990.659	240
999.99	234
1009.31	230
1018.62	262
1027.91	282
1037.2	290
1046.47	266
1055.73	236
1064.98	218
1074.22	232
1083.44	238
1092.65	258
1101.86	290
1111.05	756
1120.22	396
1129.39	280
1138.54	260
1147.69	268
1156.82	268
1165.94	306
1175.05	306
1184.14	494
1193.23	446
1202.3	464
1211.36	324
1220.41	274
1229.45	344
1238.48	292
1247.5	252
1256.5	248
1265.49	266
1274.48	298
1283.45	372
1292.41	476
1301.36	1382
1310.29	1214
1319.22	530
1328.13	450
1337.04	362
1345.93	402
1354.81	384
1363.68	328
1372.54	514
1381.38	1002
1390.22	418
1399.05	298
1407.86	290
1416.66	334
1425.46	398
1434.24	468
1443.01	488
1451.77	416
1460.52	398
1469.25	376
1477.98	398
1486.7	324
1495.4	324
1504.1	308
1512.78	272
1521.45	298
1530.11	278
1538.76	302
1547.41	296
1556.03	302
1564.65	312
1573.26	354
1581.86	462
1590.45	718
1599.02	1218
1607.59	1180
1616.14	656
1624.69	422
1633.22	312
1641.75	284
1650.26	264
1658.76	276
1667.26	274
1675.74	246
1684.21	264
1692.67	278
1701.12	264
1709.56	288
1717.99	260
1726.41	246
1734.82	258
1743.22	220
1751.61	248
1759.99	230
1768.36	250
1776.71	224
1785.06	248
1793.4	246
1801.73	238
1810.04	238
1818.35	224
1826.65	242
1834.94	236
1843.21	248
1851.48	244
1859.74	234
1867.98	240
1876.22	250
1884.45	268
1892.67	228
1900.87	228
1909.07	230
1917.26	240
1925.43	232
1933.6	242
1941.76	236
1949.91	238
1958.05	222
1966.17	224
1974.29	210
1982.4	224
1990.5	246
1998.59	232
2006.67	242
2014.74	232
2022.8	240
2030.85	236
2038.89	244
2046.92	254
2054.94	244
2062.95	234
2070.96	258
2078.95	232
2086.93	236
2094.91	232
2102.87	234
2110.83	238
2118.77	232
2126.71	222
2134.63	242
2142.55	234
2150.46	228
2158.35	242
2166.24	236
2174.12	246
2181.99	220
2189.85	228
2197.7	224
2205.55	238
2213.38	212
2221.2	252
2229.02	244
2236.82	236
2244.62	220
2252.4	234
2260.18	246
2267.95	222
2275.71	214
2283.46	208
2291.2	224
2298.93	242
2306.65	236
2314.37	228
2322.07	244
2329.77	228
2337.45	248
2345.13	230
2352.8	208
2360.46	218
2368.11	212
2375.75	234
2383.38	224
2391.01	222
2398.62	248
2406.23	232
2413.82	204
2421.41	224
2428.99	232
2436.56	220
2444.12	226
2449.79	210