Folder: NRC_SU25_Spectral_Classification/Mixture_Classification/Jesse_Dataset_v2/Pure Raman/Polypropylene oxide/633nm (part 3)

File: ps-ppo-7jan25-0,0000-map2_Y01_X10.txt
182.393	744
192.79	646
203.174	558
213.542	470
223.897	660
234.238	1348
244.566	902
254.878	496
265.178	364
275.463	304
285.734	408
295.992	652
306.236	514
316.467	400
326.684	416
336.887	436
347.075	354
357.251	388
367.413	360
377.562	354
387.697	282
397.819	250
407.926	314
418.02	384
428.101	270
438.169	216
448.223	192
458.264	198
468.291	262
478.306	428
488.307	492
498.294	268
508.269	288
518.23	338
528.177	408
538.113	852
548.034	492
557.942	570
567.838	2776
577.72	1582
587.589	634
597.446	488
607.289	270
617.119	264
626.936	300
636.741	358
646.533	278
656.313	242
666.078	188
675.831	190
685.571	198
695.299	194
705.014	216
714.716	280
724.406	222
734.082	238
743.746	290
753.398	344
763.037	244
772.664	224
782.278	232
791.879	214
801.467	224
811.044	248
820.608	252
830.16	840
839.699	436
849.226	286
858.741	272
868.243	222
877.731	222
887.209	208
896.674	196
906.128	216
915.569	200
924.997	214
934.414	222
943.818	274
953.211	564
962.59	936
971.958	488
981.314	266
990.659	256
999.99	222
1009.31	228
1018.62	262
1027.91	290
1037.2	318
1046.47	286
1055.73	244
1064.98	246
1074.22	250
1083.44	204
1092.65	236
1101.86	278
1111.05	888
1120.22	408
1129.39	290
1138.54	276
1147.69	258
1156.82	284
1165.94	300
1175.05	314
1184.14	614
1193.23	462
1202.3	502
1211.36	340
1220.41	306
1229.45	360
1238.48	278
1247.5	260
1256.5	264
1265.49	276
1274.48	290
1283.45	406
1292.41	546
1301.36	1642
1310.29	1364
1319.22	594
1328.13	518
1337.04	396
1345.93	392
1354.81	402
1363.68	354
1372.54	594
1381.38	1068
1390.22	444
1399.05	300
1407.86	304
1416.66	372
1425.46	430
1434.24	516
1443.01	528
1451.77	462
1460.52	410
1469.25	400
1477.98	406
1486.7	328
1495.4	334
1504.1	300
1512.78	308
1521.45	322
1530.11	328
1538.76	326
1547.41	318
1556.03	324
1564.65	342
1573.26	396
1581.86	492
1590.45	834
1599.02	1418
1607.59	1322
1616.14	790
1624.69	416
1633.22	346
1641.75	292
1650.26	280
1658.76	274
1667.26	266
1675.74	252
1684.21	242
1692.67	288
1701.12	268
1709.56	272
1717.99	282
1726.41	248
1734.82	264
1743.22	238
1751.61	262
1759.99	260
1768.36	220
1776.71	258
1785.06	238
1793.4	252
1801.73	248
1810.04	228
1818.35	224
1826.65	248
1834.94	244
1843.21	230
1851.48	244
1859.74	234
1867.98	246
1876.22	238
1884.45	242
1892.67	240
1900.87	242
1909.07	226
1917.26	240
1925.43	246
1933.6	232
1941.76	248
1949.91	250
1958.05	238
1966.17	254
1974.29	206
1982.4	244
1990.5	240
1998.59	216
2006.67	236
2014.74	222
2022.8	220
2030.85	228
2038.89	232
2046.92	224
2054.94	234
2062.95	228
2070.96	240
2078.95	232
2086.93	234
2094.91	230
2102.87	222
2110.83	238
2118.77	216
2126.71	226
2134.63	228
2142.55	244
2150.46	234
2158.35	218
2166.24	250
2174.12	232
2181.99	236
2189.85	230
2197.7	238
2205.55	222
2213.38	218
2221.2	224
2229.02	230
2236.82	220
2244.62	224
2252.4	232
2260.18	220
2267.95	240
2275.71	210
2283.46	214
2291.2	246
2298.93	236
2306.65	246
2314.37	228
2322.07	258
2329.77	234
2337.45	222
2345.13	244
2352.8	236
2360.46	212
2368.11	236
2375.75	226
2383.38	244
2391.01	226
2398.62	250
2406.23	238
2413.82	230
2421.41	216
2428.99	214
2436.56	204
2444.12	238
2449.79	228

File: ps-ppo-7jan25-0,0000-map2_Y02_X00.txt
182.393	774
192.79	640
203.174	582
213.542	510
223.897	628
234.238	1350
244.566	902
254.878	490
265.178	336
275.463	324
285.734	412
295.992	656
306.236	514
316.467	400
326.684	386
336.887	448
347.075	368
357.251	410
367.413	366
377.562	342
387.697	290
397.819	276
407.926	322
418.02	398
428.101	262
438.169	244
448.223	224
458.264	224
468.291	294
478.306	428
488.307	484
498.294	284
508.269	302
518.23	342
528.177	434
538.113	820
548.034	468
557.942	522
567.838	2786
577.72	1596
587.589	652
597.446	490
607.289	286
617.119	254
626.936	328
636.741	374
646.533	280
656.313	240
666.078	200
675.831	208
685.571	202
695.299	198
705.014	212
714.716	300
724.406	260
734.082	250
743.746	318
753.398	338
763.037	254
772.664	236
782.278	262
791.879	244
801.467	238
811.044	252
820.608	294
830.16	852
839.699	456
849.226	316
858.741	268
868.243	256
877.731	254
887.209	224
896.674	232
906.128	238
915.569	218
924.997	220
934.414	276
943.818	312
953.211	584
962.59	940
971.958	514
981.314	290
990.659	310
999.99	244
1009.31	248
1018.62	272
1027.91	316
1037.2	332
1046.47	264
1055.73	270
1064.98	264
1074.22	238
1083.44	250
1092.65	254
1101.86	302
1111.05	916
1120.22	444
1129.39	308
1138.54	288
1147.69	274
1156.82	278
1165.94	316
1175.05	328
1184.14	634
1193.23	500
1202.3	530
1211.36	356
1220.41	298
1229.45	392
1238.48	306
1247.5	284
1256.5	266
1265.49	308
1274.48	324
1283.45	388
1292.41	566
1301.36	1682
1310.29	1346
1319.22	616
1328.13	526
1337.04	374
1345.93	406
1354.81	408
1363.68	360
1372.54	606
1381.38	1098
1390.22	452
1399.05	342
1407.86	308
1416.66	368
1425.46	492
1434.24	508
1443.01	554
1451.77	436
1460.52	424
1469.25	412
1477.98	390
1486.7	354
1495.4	342
1504.1	312
1512.78	306
1521.45	324
1530.11	322
1538.76	312
1547.41	330
1556.03	320
1564.65	380
1573.26	396
1581.86	512
1590.45	838
1599.02	1424
1607.59	1376
1616.14	800
1624.69	448
1633.22	350
1641.75	294
1650.26	270
1658.76	284
1667.26	282
1675.74	288
1684.21	304
1692.67	308
1701.12	270
1709.56	302
1717.99	272
1726.41	268
1734.82	270
1743.22	252
1751.61	260
1759.99	240
1768.36	266
1776.71	272
1785.06	254
1793.4	252
1801.73	246
1810.04	272
1818.35	240
1826.65	240
1834.94	274
1843.21	254
1851.48	250
1859.74	252
1867.98	242
1876.22	264
1884.45	256
1892.67	268
1900.87	254
1909.07	278
1917.26	244
1925.43	262
1933.6	240
1941.76	248
1949.91	240
1958.05	232
1966.17	248
1974.29	246
1982.4	246
1990.5	266
1998.59	262
2006.67	266
2014.74	268
2022.8	252
2030.85	248
2038.89	248
2046.92	258
2054.94	248
2062.95	250
2070.96	266
2078.95	264
2086.93	246
2094.91	250
2102.87	248
2110.83	252
2118.77	240
2126.71	232
2134.63	258
2142.55	252
2150.46	262
2158.35	244
2166.24	242
2174.12	252
2181.99	248
2189.85	254
2197.7	230
2205.55	236
2213.38	244
2221.2	244
2229.02	232
2236.82	226
2244.62	238
2252.4	244
2260.18	230
2267.95	236
2275.71	240
2283.46	254
2291.2	236
2298.93	228
2306.65	244
2314.37	260
2322.07	250
2329.77	270
2337.45	252
2345.13	248
2352.8	258
2360.46	248
2368.11	252
2375.75	252
2383.38	222
2391.01	240
2398.62	244
2406.23	246
2413.82	242
2421.41	230
2428.99	228
2436.56	210
2444.12	244
2449.79	264

File: ps-ppo-7jan25-0,0000-map2_Y02_X02.txt
182.393	736
192.79	642
203.174	544
213.542	452
223.897	626
234.238	1314
244.566	882
254.878	498
265.178	314
275.463	280
285.734	388
295.992	626
306.236	454
316.467	378
326.684	380
336.887	424
347.075	360
357.251	366
367.413	326
377.562	328
387.697	260
397.819	246
407.926	252
418.02	372
428.101	228
438.169	190
448.223	182
458.264	180
468.291	264
478.306	404
488.307	450
498.294	242
508.269	258
518.23	324
528.177	426
538.113	808
548.034	460
557.942	502
567.838	2768
577.72	1594
587.589	636
597.446	464
607.289	240
617.119	234
626.936	284
636.741	340
646.533	266
656.313	220
666.078	178
675.831	166
685.571	176
695.299	176
705.014	180
714.716	250
724.406	194
734.082	214
743.746	290
753.398	328
763.037	218
772.664	210
782.278	232
791.879	208
801.467	204
811.044	222
820.608	232
830.16	840
839.699	410
849.226	272
858.741	252
868.243	218
877.731	206
887.209	182
896.674	180
906.128	184
915.569	184
924.997	202
934.414	190
943.818	264
953.211	558
962.59	924
971.958	462
981.314	260
990.659	242
999.99	204
1009.31	212
1018.62	244
1027.91	268
1037.2	272
1046.47	254
1055.73	218
1064.98	214
1074.22	196
1083.44	190
1092.65	224
1101.86	266
1111.05	852
1120.22	388
1129.39	248
1138.54	250
1147.69	216
1156.82	228
1165.94	294
1175.05	288
1184.14	564
1193.23	464
1202.3	472
1211.36	318
1220.41	242
1229.45	344
1238.48	268
1247.5	246
1256.5	242
1265.49	248
1274.48	288
1283.45	374
1292.41	486
1301.36	1542
1310.29	1346
1319.22	574
1328.13	462
1337.04	354
1345.93	366
1354.81	386
1363.68	318
1372.54	540
1381.38	1066
1390.22	422
1399.05	282
1407.86	290
1416.66	344
1425.46	402
1434.24	474
1443.01	522
1451.77	380
1460.52	382
1469.25	364
1477.98	352
1486.7	322
1495.4	290
1504.1	270
1512.78	284
1521.45	272
1530.11	282
1538.76	262
1547.41	284
1556.03	302
1564.65	322
1573.26	356
1581.86	446
1590.45	782
1599.02	1432
1607.59	1326
1616.14	752
1624.69	374
1633.22	302
1641.75	258
1650.26	274
1658.76	262
1667.26	226
1675.74	238
1684.21	242
1692.67	256
1701.12	250
1709.56	258
1717.99	244
1726.41	240
1734.82	210
1743.22	214
1751.61	208
1759.99	226
1768.36	228
1776.71	212
1785.06	216
1793.4	224
1801.73	208
1810.04	224
1818.35	216
1826.65	204
1834.94	206
1843.21	190
1851.48	206
1859.74	226
1867.98	222
1876.22	220
1884.45	206
1892.67	204
1900.87	220
1909.07	214
1917.26	222
1925.43	220
1933.6	212
1941.76	198
1949.91	232
1958.05	198
1966.17	216
1974.29	218
1982.4	206
1990.5	194
1998.59	200
2006.67	220
2014.74	234
2022.8	216
2030.85	216
2038.89	214
2046.92	234
2054.94	206
2062.95	218
2070.96	204
2078.95	216
2086.93	214
2094.91	210
2102.87	208
2110.83	200
2118.77	236
2126.71	210
2134.63	196
2142.55	200
2150.46	226
2158.35	214
2166.24	214
2174.12	210
2181.99	218
2189.85	200
2197.7	200
2205.55	198
2213.38	196
2221.2	208
2229.02	212
2236.82	194
2244.62	204
2252.4	224
2260.18	226
2267.95	210
2275.71	214
2283.46	202
2291.2	220
2298.93	218
2306.65	228
2314.37	214
2322.07	240
2329.77	234
2337.45	234
2345.13	214
2352.8	190
2360.46	224
2368.11	222
2375.75	210
2383.38	224
2391.01	226
2398.62	214
2406.23	216
2413.82	216
2421.41	188
2428.99	216
2436.56	218
2444.12	208
2449.79	218

File: ps-ppo-7jan25-0,0000-map2_Y02_X03.txt
182.393	702
192.79	612
203.174	536
213.542	448
223.897	610
234.238	1234
244.566	862
254.878	464
265.178	326
275.463	288
285.734	368
295.992	642
306.236	474
316.467	352
326.684	370
336.887	410
347.075	346
357.251	366
367.413	322
377.562	306
387.697	250
397.819	234
407.926	274
418.02	348
428.101	226
438.169	180
448.223	172
458.264	180
468.291	226
478.306	372
488.307	438
498.294	248
508.269	270
518.23	302
528.177	398
538.113	780
548.034	452
557.942	496
567.838	2760
577.72	1562
587.589	608
597.446	454
607.289	232
617.119	214
626.936	280
636.741	344
646.533	254
656.313	208
666.078	194
675.831	148
685.571	176
695.299	158
705.014	172
714.716	242
724.406	206
734.082	198
743.746	262
753.398	292
763.037	194
772.664	186
782.278	206
791.879	194
801.467	202
811.044	200
820.608	216
830.16	802
839.699	406
849.226	264
858.741	228
868.243	212
877.731	186
887.209	178
896.674	178
906.128	184
915.569	168
924.997	180
934.414	204
943.818	246
953.211	534
962.59	882
971.958	442
981.314	240
990.659	248
999.99	210
1009.31	196
1018.62	222
1027.91	264
1037.2	272
1046.47	242
1055.73	206
1064.98	184
1074.22	204
1083.44	196
1092.65	208
1101.86	258
1111.05	870
1120.22	372
1129.39	240
1138.54	234
1147.69	218
1156.82	264
1165.94	250
1175.05	266
1184.14	562
1193.23	456
1202.3	482
1211.36	300
1220.41	256
1229.45	356
1238.48	244
1247.5	238
1256.5	228
1265.49	250
1274.48	266
1283.45	352
1292.41	500
1301.36	1596
1310.29	1322
1319.22	536
1328.13	464
1337.04	320
1345.93	374
1354.81	362
1363.68	320
1372.54	556
1381.38	1028
1390.22	376
1399.05	278
1407.86	276
1416.66	324
1425.46	418
1434.24	460
1443.01	518
1451.77	414
1460.52	372
1469.25	394
1477.98	358
1486.7	306
1495.4	292
1504.1	300
1512.78	262
1521.45	276
1530.11	280
1538.76	284
1547.41	270
1556.03	294
1564.65	298
1573.26	360
1581.86	476
1590.45	772
1599.02	1400
1607.59	1290
1616.14	736
1624.69	414
1633.22	266
1641.75	266
1650.26	248
1658.76	242
1667.26	244
1675.74	216
1684.21	232
1692.67	246
1701.12	236
1709.56	240
1717.99	228
1726.41	224
1734.82	196
1743.22	216
1751.61	218
1759.99	218
1768.36	218
1776.71	218
1785.06	228
1793.4	190
1801.73	216
1810.04	218
1818.35	206
1826.65	190
1834.94	198
1843.21	212
1851.48	204
1859.74	206
1867.98	218
1876.22	206
1884.45	206
1892.67	214
1900.87	200
1909.07	214
1917.26	206
1925.43	220
1933.6	214
1941.76	216
1949.91	212
1958.05	210
1966.17	202
1974.29	212
1982.4	206
1990.5	214
1998.59	208
2006.67	222
2014.74	206
2022.8	218
2030.85	216
2038.89	222
2046.92	200
2054.94	210
2062.95	196
2070.96	198
2078.95	218
2086.93	220
2094.91	220
2102.87	208
2110.83	206
2118.77	210
2126.71	226
2134.63	228
2142.55	214
2150.46	196
2158.35	216
2166.24	214
2174.12	222
2181.99	216
2189.85	214
2197.7	194
2205.55	208
2213.38	214
2221.2	210
2229.02	192
2236.82	220
2244.62	226
2252.4	192
2260.18	222
2267.95	220
2275.71	218
2283.46	216
2291.2	228
2298.93	204
2306.65	212
2314.37	218
2322.07	220
2329.77	210
2337.45	228
2345.13	202
2352.8	202
2360.46	228
2368.11	208
2375.75	214
2383.38	200
2391.01	208
2398.62	218
2406.23	232
2413.82	212
2421.41	202
2428.99	200
2436.56	200
2444.12	214
2449.79	202

File: ps-ppo-7jan25-0,0000-map2_Y02_X05.txt
182.393	712
192.79	640
203.174	504
213.542	476
223.897	610
234.238	1312
244.566	882
254.878	480
265.178	334
275.463	294
285.734	384
295.992	602
306.236	444
316.467	384
326.684	392
336.887	430
347.075	338
357.251	356
367.413	328
377.562	300
387.697	274
397.819	240
407.926	266
418.02	362
428.101	220
438.169	188
448.223	170
458.264	180
468.291	230
478.306	400
488.307	462
498.294	254
508.269	256
518.23	316
528.177	372
538.113	806
548.034	452
557.942	530
567.838	2722
577.72	1530
587.589	614
597.446	436
607.289	252
617.119	206
626.936	288
636.741	322
646.533	266
656.313	218
666.078	182
675.831	158
685.571	176
695.299	186
705.014	204
714.716	258
724.406	208
734.082	218
743.746	292
753.398	300
763.037	202
772.664	224
782.278	222
791.879	202
801.467	188
811.044	212
820.608	246
830.16	804
839.699	366
849.226	284
858.741	234
868.243	204
877.731	198
887.209	186
896.674	174
906.128	170
915.569	174
924.997	198
934.414	208
943.818	260
953.211	550
962.59	906
971.958	480
981.314	244
990.659	230
999.99	194
1009.31	206
1018.62	228
1027.91	278
1037.2	298
1046.47	232
1055.73	212
1064.98	208
1074.22	204
1083.44	212
1092.65	234
1101.86	252
1111.05	828
1120.22	398
1129.39	254
1138.54	246
1147.69	244
1156.82	260
1165.94	278
1175.05	286
1184.14	558
1193.23	452
1202.3	460
1211.36	310
1220.41	242
1229.45	370
1238.48	254
1247.5	230
1256.5	238
1265.49	258
1274.48	280
1283.45	360
1292.41	524
1301.36	1604
1310.29	1358
1319.22	566
1328.13	468
1337.04	334
1345.93	392
1354.81	364
1363.68	316
1372.54	558
1381.38	1076
1390.22	402
1399.05	288
1407.86	290
1416.66	346
1425.46	406
1434.24	456
1443.01	510
1451.77	388
1460.52	398
1469.25	392
1477.98	374
1486.7	328
1495.4	306
1504.1	288
1512.78	314
1521.45	280
1530.11	286
1538.76	268
1547.41	280
1556.03	290
1564.65	322
1573.26	360
1581.86	482
1590.45	774
1599.02	1326
1607.59	1280
1616.14	736
1624.69	420
1633.22	308
1641.75	266
1650.26	256
1658.76	236
1667.26	230
1675.74	234
1684.21	254
1692.67	262
1701.12	256
1709.56	242
1717.99	216
1726.41	250
1734.82	218
1743.22	220
1751.61	218
1759.99	222
1768.36	218
1776.71	230
1785.06	220
1793.4	226
1801.73	242
1810.04	206
1818.35	226
1826.65	222
1834.94	230
1843.21	222
1851.48	214
1859.74	206
1867.98	218
1876.22	216
1884.45	230
1892.67	238
1900.87	216
1909.07	216
1917.26	226
1925.43	236
1933.6	232
1941.76	226
1949.91	224
1958.05	248
1966.17	210
1974.29	212
1982.4	228
1990.5	224
1998.59	234
2006.67	234
2014.74	232
2022.8	220
2030.85	222
2038.89	214
2046.92	218
2054.94	238
2062.95	220
2070.96	206
2078.95	228
2086.93	224
2094.91	204
2102.87	214
2110.83	218
2118.77	210
2126.71	216
2134.63	224
2142.55	236
2150.46	224
2158.35	216
2166.24	210
2174.12	226
2181.99	216
2189.85	216
2197.7	216
2205.55	210
2213.38	214
2221.2	222
2229.02	214
2236.82	204
2244.62	222
2252.4	212
2260.18	202
2267.95	212
2275.71	226
2283.46	216
2291.2	216
2298.93	214
2306.65	224
2314.37	230
2322.07	238
2329.77	238
2337.45	222
2345.13	232
2352.8	228
2360.46	222
2368.11	220
2375.75	226
2383.38	218
2391.01	214
2398.62	220
2406.23	224
2413.82	240
2421.41	214
2428.99	208
2436.56	206
2444.12	214
2449.79	228

File: ps-ppo-7jan25-0,0000-map2_Y02_X07.txt
182.393	690
192.79	612
203.174	534
213.542	458
223.897	596
234.238	1296
244.566	886
254.878	496
265.178	322
275.463	280
285.734	372
295.992	636
306.236	472
316.467	374
326.684	370
336.887	408
347.075	344
357.251	370
367.413	326
377.562	306
387.697	240
397.819	222
407.926	294
418.02	370
428.101	234
438.169	202
448.223	180
458.264	174
468.291	228
478.306	412
488.307	438
498.294	240
508.269	250
518.23	328
528.177	378
538.113	772
548.034	462
557.942	506
567.838	2720
577.72	1606
587.589	628
597.446	442
607.289	254
617.119	216
626.936	274
636.741	316
646.533	256
656.313	200
666.078	180
675.831	162
685.571	164
695.299	176
705.014	190
714.716	252
724.406	218
734.082	216
743.746	278
753.398	300
763.037	212
772.664	202
782.278	218
791.879	210
801.467	194
811.044	218
820.608	232
830.16	798
839.699	378
849.226	270
858.741	244
868.243	182
877.731	180
887.209	188
896.674	182
906.128	194
915.569	194
924.997	176
934.414	206
943.818	250
953.211	550
962.59	906
971.958	446
981.314	248
990.659	242
999.99	212
1009.31	202
1018.62	228
1027.91	288
1037.2	304
1046.47	224
1055.73	202
1064.98	200
1074.22	212
1083.44	204
1092.65	218
1101.86	250
1111.05	806
1120.22	370
1129.39	264
1138.54	252
1147.69	240
1156.82	246
1165.94	268
1175.05	294
1184.14	570
1193.23	460
1202.3	496
1211.36	310
1220.41	254
1229.45	350
1238.48	232
1247.5	218
1256.5	228
1265.49	230
1274.48	272
1283.45	366
1292.41	526
1301.36	1612
1310.29	1356
1319.22	554
1328.13	474
1337.04	350
1345.93	362
1354.81	372
1363.68	320
1372.54	534
1381.38	1048
1390.22	402
1399.05	292
1407.86	274
1416.66	316
1425.46	416
1434.24	466
1443.01	510
1451.77	398
1460.52	374
1469.25	372
1477.98	354
1486.7	296
1495.4	288
1504.1	290
1512.78	282
1521.45	284
1530.11	280
1538.76	276
1547.41	296
1556.03	294
1564.65	296
1573.26	366
1581.86	438
1590.45	772
1599.02	1390
1607.59	1260
1616.14	752
1624.69	376
1633.22	292
1641.75	264
1650.26	244
1658.76	226
1667.26	232
1675.74	218
1684.21	230
1692.67	250
1701.12	250
1709.56	232
1717.99	228
1726.41	218
1734.82	206
1743.22	210
1751.61	228
1759.99	210
1768.36	202
1776.71	228
1785.06	216
1793.4	226
1801.73	216
1810.04	210
1818.35	206
1826.65	194
1834.94	202
1843.21	208
1851.48	204
1859.74	204
1867.98	198
1876.22	218
1884.45	214
1892.67	230
1900.87	210
1909.07	196
1917.26	208
1925.43	214
1933.6	222
1941.76	216
1949.91	210
1958.05	202
1966.17	198
1974.29	188
1982.4	202
1990.5	200
1998.59	198
2006.67	210
2014.74	210
2022.8	208
2030.85	204
2038.89	200
2046.92	232
2054.94	216
2062.95	218
2070.96	216
2078.95	224
2086.93	198
2094.91	200
2102.87	222
2110.83	198
2118.77	198
2126.71	210
2134.63	206
2142.55	200
2150.46	200
2158.35	220
2166.24	214
2174.12	216
2181.99	218
2189.85	194
2197.7	218
2205.55	216
2213.38	200
2221.2	202
2229.02	222
2236.82	216
2244.62	214
2252.4	216
2260.18	206
2267.95	218
2275.71	230
2283.46	208
2291.2	188
2298.93	214
2306.65	222
2314.37	230
2322.07	208
2329.77	208
2337.45	216
2345.13	196
2352.8	214
2360.46	196
2368.11	216
2375.75	222
2383.38	224
2391.01	218
2398.62	224
2406.23	220
2413.82	230
2421.41	210
2428.99	216
2436.56	200
2444.12	202
2449.79	212

File: ps-ppo-7jan25-0,0000-map2_Y02_X09.txt
182.393	758
192.79	622
203.174	520
213.542	454
223.897	626
234.238	1302
244.566	908
254.878	480
265.178	332
275.463	306
285.734	390
295.992	632
306.236	462
316.467	410
326.684	388
336.887	420
347.075	350
357.251	368
367.413	332
377.562	320
387.697	254
397.819	258
407.926	306
418.02	368
428.101	250
438.169	198
448.223	180
458.264	178
468.291	242
478.306	408
488.307	472
498.294	246
508.269	276
518.23	306
528.177	394
538.113	790
548.034	474
557.942	526
567.838	2780
577.72	1546
587.589	624
597.446	454
607.289	262
617.119	222
626.936	274
636.741	314
646.533	250
656.313	220
666.078	174
675.831	162
685.571	186
695.299	178
705.014	196
714.716	242
724.406	220
734.082	212
743.746	282
753.398	310
763.037	206
772.664	204
782.278	230
791.879	202
801.467	214
811.044	218
820.608	238
830.16	804
839.699	422
849.226	284
858.741	268
868.243	210
877.731	194
887.209	198
896.674	196
906.128	184
915.569	180
924.997	206
934.414	202
943.818	252
953.211	556
962.59	882
971.958	436
981.314	254
990.659	244
999.99	228
1009.31	214
1018.62	228
1027.91	278
1037.2	290
1046.47	246
1055.73	200
1064.98	216
1074.22	208
1083.44	204
1092.65	210
1101.86	254
1111.05	892
1120.22	370
1129.39	280
1138.54	268
1147.69	240
1156.82	260
1165.94	266
1175.05	284
1184.14	572
1193.23	466
1202.3	502
1211.36	320
1220.41	268
1229.45	378
1238.48	248
1247.5	240
1256.5	240
1265.49	256
1274.48	270
1283.45	384
1292.41	516
1301.36	1664
1310.29	1370
1319.22	590
1328.13	458
1337.04	336
1345.93	394
1354.81	396
1363.68	328
1372.54	578
1381.38	1050
1390.22	424
1399.05	286
1407.86	312
1416.66	328
1425.46	426
1434.24	484
1443.01	504
1451.77	414
1460.52	414
1469.25	382
1477.98	396
1486.7	310
1495.4	308
1504.1	282
1512.78	268
1521.45	278
1530.11	284
1538.76	288
1547.41	294
1556.03	298
1564.65	308
1573.26	376
1581.86	462
1590.45	774
1599.02	1408
1607.59	1384
1616.14	744
1624.69	426
1633.22	314
1641.75	280
1650.26	234
1658.76	236
1667.26	248
1675.74	234
1684.21	250
1692.67	264
1701.12	252
1709.56	254
1717.99	224
1726.41	240
1734.82	236
1743.22	226
1751.61	230
1759.99	202
1768.36	212
1776.71	212
1785.06	212
1793.4	236
1801.73	228
1810.04	214
1818.35	220
1826.65	220
1834.94	232
1843.21	220
1851.48	216
1859.74	206
1867.98	210
1876.22	222
1884.45	212
1892.67	228
1900.87	220
1909.07	212
1917.26	216
1925.43	242
1933.6	206
1941.76	232
1949.91	216
1958.05	210
1966.17	234
1974.29	210
1982.4	224
1990.5	214
1998.59	238
2006.67	218
2014.74	218
2022.8	212
2030.85	220
2038.89	214
2046.92	220
2054.94	230
2062.95	226
2070.96	214
2078.95	226
2086.93	228
2094.91	228
2102.87	234
2110.83	216
2118.77	226
2126.71	220
2134.63	218
2142.55	204
2150.46	240
2158.35	198
2166.24	218
2174.12	222
2181.99	214
2189.85	212
2197.7	228
2205.55	226
2213.38	206
2221.2	218
2229.02	230
2236.82	218
2244.62	218
2252.4	216
2260.18	224
2267.95	212
2275.71	212
2283.46	224
2291.2	218
2298.93	212
2306.65	226
2314.37	244
2322.07	234
2329.77	220
2337.45	238
2345.13	246
2352.8	222
2360.46	206
2368.11	192
2375.75	226
2383.38	212
2391.01	234
2398.62	218
2406.23	228
2413.82	236
2421.41	210
2428.99	216
2436.56	218
2444.12	218
2449.79	212

File: ps-ppo-7jan25-0,0000-map2_Y03_X00.txt
182.393	726
192.79	630
203.174	564
213.542	482
223.897	636
234.238	1334
244.566	904
254.878	524
265.178	350
275.463	324
285.734	414
295.992	676
306.236	494
316.467	406
326.684	414
336.887	444
347.075	376
357.251	404
367.413	386
377.562	350
387.697	290
397.819	278
407.926	320
418.02	382
428.101	260
438.169	216
448.223	208
458.264	206
468.291	280
478.306	430
488.307	498
498.294	272
508.269	302
518.23	360
528.177	430
538.113	802
548.034	500
557.942	550
567.838	2778
577.72	1590
587.589	650
597.446	468
607.289	280
617.119	266
626.936	314
636.741	352
646.533	292
656.313	258
666.078	200
675.831	192
685.571	210
695.299	200
705.014	224
714.716	284
724.406	242
734.082	262
743.746	306
753.398	326
763.037	268
772.664	250
782.278	240
791.879	238
801.467	236
811.044	246
820.608	292
830.16	848
839.699	442
849.226	302
858.741	268
868.243	228
877.731	232
887.209	220
896.674	216
906.128	222
915.569	214
924.997	216
934.414	234
943.818	282
953.211	594
962.59	968
971.958	464
981.314	278
990.659	256
999.99	250
1009.31	236
1018.62	262
1027.91	310
1037.2	320
1046.47	266
1055.73	244
1064.98	252
1074.22	230
1083.44	230
1092.65	240
1101.86	296
1111.05	904
1120.22	424
1129.39	298
1138.54	290
1147.69	248
1156.82	302
1165.94	300
1175.05	326
1184.14	596
1193.23	532
1202.3	508
1211.36	348
1220.41	288
1229.45	376
1238.48	282
1247.5	258
1256.5	276
1265.49	286
1274.48	300
1283.45	432
1292.41	574
1301.36	1652
1310.29	1356
1319.22	574
1328.13	510
1337.04	384
1345.93	420
1354.81	406
1363.68	354
1372.54	608
1381.38	1096
1390.22	430
1399.05	310
1407.86	324
1416.66	360
1425.46	446
1434.24	512
1443.01	550
1451.77	432
1460.52	436
1469.25	414
1477.98	408
1486.7	372
1495.4	332
1504.1	328
1512.78	304
1521.45	318
1530.11	306
1538.76	332
1547.41	334
1556.03	324
1564.65	340
1573.26	368
1581.86	486
1590.45	818
1599.02	1396
1607.59	1336
1616.14	772
1624.69	462
1633.22	354
1641.75	320
1650.26	278
1658.76	278
1667.26	266
1675.74	254
1684.21	278
1692.67	274
1701.12	282
1709.56	264
1717.99	262
1726.41	268
1734.82	244
1743.22	256
1751.61	280
1759.99	240
1768.36	266
1776.71	268
1785.06	250
1793.4	268
1801.73	268
1810.04	256
1818.35	260
1826.65	258
1834.94	246
1843.21	240
1851.48	252
1859.74	242
1867.98	222
1876.22	244
1884.45	254
1892.67	246
1900.87	242
1909.07	244
1917.26	254
1925.43	266
1933.6	254
1941.76	242
1949.91	240
1958.05	244
1966.17	250
1974.29	246
1982.4	248
1990.5	244
1998.59	254
2006.67	242
2014.74	274
2022.8	264
2030.85	252
2038.89	238
2046.92	268
2054.94	250
2062.95	260
2070.96	254
2078.95	248
2086.93	248
2094.91	250
2102.87	244
2110.83	244
2118.77	254
2126.71	218
2134.63	248
2142.55	240
2150.46	252
2158.35	234
2166.24	236
2174.12	232
2181.99	244
2189.85	232
2197.7	228
2205.55	244
2213.38	230
2221.2	230
2229.02	256
2236.82	230
2244.62	228
2252.4	228
2260.18	252
2267.95	252
2275.71	230
2283.46	242
2291.2	244
2298.93	264
2306.65	256
2314.37	256
2322.07	248
2329.77	228
2337.45	260
2345.13	226
2352.8	222
2360.46	234
2368.11	242
2375.75	242
2383.38	240
2391.01	248
2398.62	248
2406.23	246
2413.82	240
2421.41	262
2428.99	244
2436.56	264
2444.12	242
2449.79	234