Folder: NRC_SU25_Spectral_Classification/Mixture_Classification/Jesse_Dataset_v2/Pure Raman/Polypropylene oxide/633nm (part 5)

File: ps-ppo-7jan25-0,0000-map2_Y04_X04.txt
182.393	692
192.79	592
203.174	494
213.542	442
223.897	594
234.238	1228
244.566	886
254.878	434
265.178	296
275.463	278
285.734	396
295.992	614
306.236	496
316.467	338
326.684	382
336.887	404
347.075	336
357.251	344
367.413	314
377.562	324
387.697	226
397.819	242
407.926	274
418.02	336
428.101	224
438.169	170
448.223	176
458.264	174
468.291	224
478.306	400
488.307	438
498.294	230
508.269	250
518.23	310
528.177	376
538.113	812
548.034	438
557.942	522
567.838	2712
577.72	1554
587.589	590
597.446	438
607.289	224
617.119	212
626.936	242
636.741	304
646.533	254
656.313	192
666.078	182
675.831	170
685.571	168
695.299	162
705.014	180
714.716	236
724.406	196
734.082	212
743.746	268
753.398	292
763.037	194
772.664	190
782.278	228
791.879	194
801.467	204
811.044	204
820.608	224
830.16	794
839.699	416
849.226	264
858.741	224
868.243	188
877.731	182
887.209	176
896.674	172
906.128	172
915.569	170
924.997	174
934.414	200
943.818	250
953.211	540
962.59	912
971.958	476
981.314	228
990.659	230
999.99	198
1009.31	204
1018.62	218
1027.91	240
1037.2	280
1046.47	244
1055.73	194
1064.98	188
1074.22	184
1083.44	202
1092.65	214
1101.86	250
1111.05	832
1120.22	362
1129.39	248
1138.54	248
1147.69	220
1156.82	242
1165.94	252
1175.05	262
1184.14	560
1193.23	436
1202.3	480
1211.36	278
1220.41	210
1229.45	344
1238.48	246
1247.5	216
1256.5	218
1265.49	240
1274.48	250
1283.45	358
1292.41	504
1301.36	1612
1310.29	1326
1319.22	544
1328.13	456
1337.04	324
1345.93	354
1354.81	376
1363.68	302
1372.54	544
1381.38	1094
1390.22	396
1399.05	264
1407.86	260
1416.66	322
1425.46	396
1434.24	474
1443.01	488
1451.77	400
1460.52	396
1469.25	362
1477.98	328
1486.7	316
1495.4	280
1504.1	266
1512.78	278
1521.45	290
1530.11	262
1538.76	278
1547.41	294
1556.03	300
1564.65	288
1573.26	346
1581.86	436
1590.45	770
1599.02	1354
1607.59	1264
1616.14	734
1624.69	386
1633.22	308
1641.75	246
1650.26	250
1658.76	228
1667.26	236
1675.74	230
1684.21	232
1692.67	252
1701.12	256
1709.56	248
1717.99	230
1726.41	222
1734.82	210
1743.22	216
1751.61	212
1759.99	210
1768.36	214
1776.71	222
1785.06	210
1793.4	218
1801.73	206
1810.04	202
1818.35	204
1826.65	194
1834.94	200
1843.21	176
1851.48	206
1859.74	188
1867.98	208
1876.22	202
1884.45	198
1892.67	208
1900.87	210
1909.07	200
1917.26	204
1925.43	210
1933.6	214
1941.76	212
1949.91	196
1958.05	212
1966.17	208
1974.29	194
1982.4	216
1990.5	214
1998.59	214
2006.67	220
2014.74	216
2022.8	214
2030.85	196
2038.89	208
2046.92	230
2054.94	208
2062.95	208
2070.96	196
2078.95	206
2086.93	220
2094.91	214
2102.87	218
2110.83	184
2118.77	198
2126.71	204
2134.63	206
2142.55	208
2150.46	190
2158.35	208
2166.24	198
2174.12	208
2181.99	208
2189.85	200
2197.7	186
2205.55	220
2213.38	204
2221.2	208
2229.02	184
2236.82	230
2244.62	204
2252.4	206
2260.18	194
2267.95	208
2275.71	202
2283.46	210
2291.2	216
2298.93	202
2306.65	218
2314.37	212
2322.07	222
2329.77	230
2337.45	224
2345.13	220
2352.8	198
2360.46	212
2368.11	230
2375.75	224
2383.38	206
2391.01	212
2398.62	222
2406.23	218
2413.82	200
2421.41	202
2428.99	210
2436.56	222
2444.12	226
2449.79	212

File: ps-ppo-7jan25-0,0000-map2_Y04_X05.txt
182.393	680
192.79	566
203.174	490
213.542	450
223.897	598
234.238	1258
244.566	848
254.878	466
265.178	292
275.463	282
285.734	376
295.992	596
306.236	468
316.467	344
326.684	376
336.887	376
347.075	334
357.251	368
367.413	324
377.562	314
387.697	246
397.819	212
407.926	260
418.02	330
428.101	202
438.169	164
448.223	166
458.264	156
468.291	200
478.306	396
488.307	452
498.294	234
508.269	250
518.23	308
528.177	390
538.113	768
548.034	430
557.942	510
567.838	2688
577.72	1522
587.589	560
597.446	430
607.289	224
617.119	200
626.936	264
636.741	318
646.533	242
656.313	198
666.078	166
675.831	164
685.571	160
695.299	148
705.014	168
714.716	234
724.406	190
734.082	196
743.746	252
753.398	274
763.037	188
772.664	192
782.278	188
791.879	188
801.467	186
811.044	196
820.608	212
830.16	814
839.699	380
849.226	268
858.741	220
868.243	182
877.731	176
887.209	170
896.674	164
906.128	186
915.569	160
924.997	158
934.414	198
943.818	242
953.211	508
962.59	866
971.958	430
981.314	210
990.659	224
999.99	204
1009.31	184
1018.62	218
1027.91	226
1037.2	274
1046.47	228
1055.73	212
1064.98	190
1074.22	202
1083.44	178
1092.65	198
1101.86	218
1111.05	804
1120.22	364
1129.39	250
1138.54	238
1147.69	226
1156.82	230
1165.94	236
1175.05	254
1184.14	552
1193.23	434
1202.3	470
1211.36	268
1220.41	256
1229.45	336
1238.48	218
1247.5	210
1256.5	220
1265.49	234
1274.48	272
1283.45	346
1292.41	452
1301.36	1532
1310.29	1304
1319.22	546
1328.13	458
1337.04	334
1345.93	348
1354.81	340
1363.68	288
1372.54	554
1381.38	1034
1390.22	382
1399.05	272
1407.86	258
1416.66	304
1425.46	402
1434.24	486
1443.01	480
1451.77	390
1460.52	368
1469.25	352
1477.98	344
1486.7	292
1495.4	270
1504.1	260
1512.78	258
1521.45	254
1530.11	264
1538.76	256
1547.41	266
1556.03	264
1564.65	276
1573.26	324
1581.86	434
1590.45	734
1599.02	1368
1607.59	1244
1616.14	754
1624.69	404
1633.22	292
1641.75	248
1650.26	222
1658.76	234
1667.26	220
1675.74	210
1684.21	214
1692.67	228
1701.12	234
1709.56	216
1717.99	224
1726.41	222
1734.82	186
1743.22	198
1751.61	208
1759.99	192
1768.36	210
1776.71	204
1785.06	210
1793.4	190
1801.73	200
1810.04	206
1818.35	206
1826.65	202
1834.94	202
1843.21	200
1851.48	208
1859.74	198
1867.98	184
1876.22	202
1884.45	196
1892.67	202
1900.87	192
1909.07	198
1917.26	200
1925.43	206
1933.6	220
1941.76	190
1949.91	194
1958.05	208
1966.17	180
1974.29	202
1982.4	208
1990.5	206
1998.59	196
2006.67	210
2014.74	212
2022.8	186
2030.85	200
2038.89	194
2046.92	202
2054.94	204
2062.95	194
2070.96	192
2078.95	202
2086.93	204
2094.91	208
2102.87	206
2110.83	194
2118.77	214
2126.71	202
2134.63	188
2142.55	198
2150.46	204
2158.35	198
2166.24	198
2174.12	194
2181.99	202
2189.85	212
2197.7	206
2205.55	192
2213.38	190
2221.2	218
2229.02	208
2236.82	210
2244.62	190
2252.4	188
2260.18	200
2267.95	216
2275.71	208
2283.46	206
2291.2	204
2298.93	198
2306.65	200
2314.37	204
2322.07	220
2329.77	202
2337.45	210
2345.13	210
2352.8	216
2360.46	210
2368.11	210
2375.75	206
2383.38	210
2391.01	210
2398.62	216
2406.23	212
2413.82	222
2421.41	198
2428.99	210
2436.56	222
2444.12	216
2449.79	200

File: ps-ppo-7jan25-0,0000-map2_Y05_X00.txt
182.393	726
192.79	620
203.174	548
213.542	502
223.897	630
234.238	1320
244.566	910
254.878	508
265.178	330
275.463	314
285.734	412
295.992	662
306.236	512
316.467	396
326.684	404
336.887	404
347.075	370
357.251	396
367.413	354
377.562	324
387.697	284
397.819	262
407.926	288
418.02	370
428.101	276
438.169	220
448.223	206
458.264	204
468.291	276
478.306	414
488.307	468
498.294	284
508.269	290
518.23	354
528.177	424
538.113	826
548.034	480
557.942	550
567.838	2766
577.72	1552
587.589	632
597.446	470
607.289	254
617.119	244
626.936	296
636.741	386
646.533	294
656.313	228
666.078	202
675.831	206
685.571	194
695.299	194
705.014	214
714.716	284
724.406	236
734.082	254
743.746	312
753.398	308
763.037	204
772.664	230
782.278	230
791.879	230
801.467	224
811.044	238
820.608	260
830.16	842
839.699	412
849.226	294
858.741	276
868.243	250
877.731	220
887.209	208
896.674	204
906.128	220
915.569	190
924.997	218
934.414	228
943.818	300
953.211	564
962.59	916
971.958	502
981.314	256
990.659	264
999.99	214
1009.31	228
1018.62	244
1027.91	278
1037.2	306
1046.47	276
1055.73	240
1064.98	244
1074.22	228
1083.44	214
1092.65	246
1101.86	288
1111.05	868
1120.22	402
1129.39	290
1138.54	276
1147.69	274
1156.82	260
1165.94	306
1175.05	310
1184.14	606
1193.23	502
1202.3	508
1211.36	358
1220.41	270
1229.45	388
1238.48	290
1247.5	258
1256.5	258
1265.49	284
1274.48	314
1283.45	398
1292.41	544
1301.36	1630
1310.29	1392
1319.22	576
1328.13	498
1337.04	372
1345.93	410
1354.81	404
1363.68	388
1372.54	556
1381.38	1076
1390.22	428
1399.05	294
1407.86	298
1416.66	370
1425.46	438
1434.24	494
1443.01	546
1451.77	452
1460.52	410
1469.25	420
1477.98	384
1486.7	340
1495.4	310
1504.1	324
1512.78	300
1521.45	318
1530.11	302
1538.76	296
1547.41	324
1556.03	328
1564.65	342
1573.26	376
1581.86	506
1590.45	808
1599.02	1400
1607.59	1302
1616.14	778
1624.69	438
1633.22	340
1641.75	282
1650.26	298
1658.76	258
1667.26	254
1675.74	272
1684.21	242
1692.67	290
1701.12	260
1709.56	264
1717.99	256
1726.41	264
1734.82	268
1743.22	250
1751.61	254
1759.99	238
1768.36	216
1776.71	242
1785.06	252
1793.4	226
1801.73	234
1810.04	238
1818.35	228
1826.65	248
1834.94	232
1843.21	236
1851.48	222
1859.74	248
1867.98	242
1876.22	240
1884.45	252
1892.67	240
1900.87	242
1909.07	230
1917.26	238
1925.43	242
1933.6	234
1941.76	218
1949.91	248
1958.05	236
1966.17	246
1974.29	232
1982.4	226
1990.5	246
1998.59	252
2006.67	236
2014.74	236
2022.8	234
2030.85	236
2038.89	244
2046.92	232
2054.94	252
2062.95	244
2070.96	224
2078.95	226
2086.93	244
2094.91	246
2102.87	222
2110.83	230
2118.77	230
2126.71	232
2134.63	224
2142.55	222
2150.46	238
2158.35	230
2166.24	224
2174.12	220
2181.99	246
2189.85	230
2197.7	236
2205.55	228
2213.38	224
2221.2	228
2229.02	240
2236.82	234
2244.62	236
2252.4	224
2260.18	250
2267.95	226
2275.71	228
2283.46	232
2291.2	244
2298.93	230
2306.65	248
2314.37	236
2322.07	238
2329.77	228
2337.45	238
2345.13	222
2352.8	230
2360.46	236
2368.11	230
2375.75	246
2383.38	240
2391.01	226
2398.62	256
2406.23	242
2413.82	234
2421.41	224
2428.99	224
2436.56	244
2444.12	212
2449.79	242

File: ps-ppo-7jan25-0,0000-map2_Y05_X06.txt
182.393	634
192.79	544
203.174	466
213.542	400
223.897	546
234.238	1212
244.566	844
254.878	406
265.178	252
275.463	234
285.734	326
295.992	582
306.236	394
316.467	316
326.684	320
336.887	354
347.075	286
357.251	300
367.413	272
377.562	266
387.697	218
397.819	170
407.926	214
418.02	300
428.101	192
438.169	132
448.223	116
458.264	134
468.291	176
478.306	344
488.307	398
498.294	176
508.269	206
518.23	264
528.177	318
538.113	708
548.034	394
557.942	448
567.838	2632
577.72	1464
587.589	554
597.446	382
607.289	176
617.119	174
626.936	220
636.741	262
646.533	184
656.313	140
666.078	114
675.831	120
685.571	114
695.299	114
705.014	124
714.716	178
724.406	154
734.082	158
743.746	210
753.398	234
763.037	138
772.664	142
782.278	164
791.879	144
801.467	132
811.044	152
820.608	192
830.16	730
839.699	330
849.226	206
858.741	178
868.243	140
877.731	130
887.209	128
896.674	124
906.128	134
915.569	118
924.997	126
934.414	136
943.818	196
953.211	460
962.59	840
971.958	402
981.314	180
990.659	168
999.99	142
1009.31	146
1018.62	168
1027.91	200
1037.2	214
1046.47	186
1055.73	154
1064.98	144
1074.22	146
1083.44	138
1092.65	150
1101.86	186
1111.05	750
1120.22	312
1129.39	202
1138.54	188
1147.69	158
1156.82	186
1165.94	216
1175.05	214
1184.14	496
1193.23	362
1202.3	412
1211.36	234
1220.41	178
1229.45	280
1238.48	184
1247.5	168
1256.5	178
1265.49	178
1274.48	198
1283.45	298
1292.41	446
1301.36	1510
1310.29	1294
1319.22	462
1328.13	400
1337.04	308
1345.93	296
1354.81	284
1363.68	232
1372.54	490
1381.38	978
1390.22	348
1399.05	216
1407.86	210
1416.66	264
1425.46	342
1434.24	420
1443.01	428
1451.77	336
1460.52	322
1469.25	296
1477.98	276
1486.7	254
1495.4	214
1504.1	214
1512.78	202
1521.45	204
1530.11	202
1538.76	204
1547.41	218
1556.03	218
1564.65	244
1573.26	278
1581.86	402
1590.45	710
1599.02	1296
1607.59	1196
1616.14	672
1624.69	342
1633.22	244
1641.75	192
1650.26	186
1658.76	184
1667.26	158
1675.74	164
1684.21	170
1692.67	190
1701.12	192
1709.56	184
1717.99	164
1726.41	160
1734.82	158
1743.22	152
1751.61	150
1759.99	158
1768.36	156
1776.71	156
1785.06	152
1793.4	152
1801.73	154
1810.04	156
1818.35	152
1826.65	148
1834.94	146
1843.21	156
1851.48	156
1859.74	152
1867.98	156
1876.22	154
1884.45	164
1892.67	156
1900.87	148
1909.07	142
1917.26	146
1925.43	164
1933.6	156
1941.76	148
1949.91	166
1958.05	148
1966.17	162
1974.29	150
1982.4	154
1990.5	154
1998.59	148
2006.67	150
2014.74	154
2022.8	164
2030.85	162
2038.89	158
2046.92	156
2054.94	162
2062.95	158
2070.96	162
2078.95	164
2086.93	150
2094.91	160
2102.87	154
2110.83	150
2118.77	156
2126.71	162
2134.63	158
2142.55	154
2150.46	160
2158.35	166
2166.24	146
2174.12	162
2181.99	158
2189.85	150
2197.7	162
2205.55	160
2213.38	170
2221.2	152
2229.02	160
2236.82	166
2244.62	148
2252.4	158
2260.18	162
2267.95	166
2275.71	162
2283.46	168
2291.2	166
2298.93	162
2306.65	166
2314.37	182
2322.07	180
2329.77	174
2337.45	168
2345.13	160
2352.8	172
2360.46	166
2368.11	166
2375.75	168
2383.38	178
2391.01	176
2398.62	180
2406.23	176
2413.82	182
2421.41	168
2428.99	178
2436.56	176
2444.12	174
2449.79	170

File: ps-ppo-7jan25-0,0000-map2_Y05_X07.txt
182.393	664
192.79	536
203.174	478
213.542	416
223.897	564
234.238	1218
244.566	858
254.878	460
265.178	268
275.463	246
285.734	340
295.992	608
306.236	416
316.467	342
326.684	346
336.887	376
347.075	320
357.251	334
367.413	306
377.562	268
387.697	232
397.819	216
407.926	260
418.02	294
428.101	194
438.169	164
448.223	130
458.264	138
468.291	204
478.306	360
488.307	408
498.294	212
508.269	228
518.23	284
528.177	340
538.113	720
548.034	408
557.942	494
567.838	2626
577.72	1514
587.589	580
597.446	420
607.289	208
617.119	188
626.936	266
636.741	290
646.533	204
656.313	182
666.078	146
675.831	132
685.571	142
695.299	132
705.014	144
714.716	206
724.406	156
734.082	172
743.746	230
753.398	238
763.037	172
772.664	150
782.278	178
791.879	160
801.467	172
811.044	166
820.608	192
830.16	756
839.699	372
849.226	224
858.741	206
868.243	162
877.731	156
887.209	158
896.674	134
906.128	136
915.569	134
924.997	152
934.414	164
943.818	212
953.211	480
962.59	856
971.958	404
981.314	204
990.659	182
999.99	150
1009.31	158
1018.62	180
1027.91	208
1037.2	232
1046.47	200
1055.73	162
1064.98	150
1074.22	154
1083.44	182
1092.65	180
1101.86	198
1111.05	762
1120.22	332
1129.39	210
1138.54	214
1147.69	186
1156.82	206
1165.94	228
1175.05	244
1184.14	510
1193.23	420
1202.3	432
1211.36	272
1220.41	210
1229.45	306
1238.48	214
1247.5	194
1256.5	196
1265.49	218
1274.48	244
1283.45	306
1292.41	478
1301.36	1510
1310.29	1234
1319.22	492
1328.13	410
1337.04	298
1345.93	316
1354.81	312
1363.68	272
1372.54	494
1381.38	1000
1390.22	376
1399.05	232
1407.86	242
1416.66	272
1425.46	366
1434.24	432
1443.01	464
1451.77	350
1460.52	326
1469.25	336
1477.98	310
1486.7	268
1495.4	248
1504.1	244
1512.78	234
1521.45	220
1530.11	222
1538.76	224
1547.41	242
1556.03	236
1564.65	270
1573.26	284
1581.86	404
1590.45	724
1599.02	1350
1607.59	1224
1616.14	686
1624.69	350
1633.22	258
1641.75	216
1650.26	194
1658.76	192
1667.26	198
1675.74	186
1684.21	194
1692.67	208
1701.12	198
1709.56	180
1717.99	182
1726.41	194
1734.82	188
1743.22	174
1751.61	180
1759.99	172
1768.36	156
1776.71	174
1785.06	186
1793.4	168
1801.73	176
1810.04	186
1818.35	146
1826.65	162
1834.94	160
1843.21	176
1851.48	178
1859.74	184
1867.98	182
1876.22	180
1884.45	170
1892.67	180
1900.87	182
1909.07	176
1917.26	178
1925.43	192
1933.6	178
1941.76	166
1949.91	168
1958.05	178
1966.17	180
1974.29	170
1982.4	174
1990.5	172
1998.59	170
2006.67	164
2014.74	184
2022.8	192
2030.85	166
2038.89	184
2046.92	190
2054.94	182
2062.95	172
2070.96	160
2078.95	186
2086.93	182
2094.91	174
2102.87	176
2110.83	170
2118.77	160
2126.71	174
2134.63	168
2142.55	176
2150.46	172
2158.35	188
2166.24	178
2174.12	186
2181.99	176
2189.85	182
2197.7	186
2205.55	176
2213.38	174
2221.2	192
2229.02	182
2236.82	176
2244.62	166
2252.4	186
2260.18	192
2267.95	176
2275.71	184
2283.46	180
2291.2	168
2298.93	190
2306.65	176
2314.37	172
2322.07	192
2329.77	188
2337.45	184
2345.13	186
2352.8	190
2360.46	174
2368.11	186
2375.75	198
2383.38	188
2391.01	198
2398.62	190
2406.23	202
2413.82	188
2421.41	182
2428.99	184
2436.56	172
2444.12	172
2449.79	194

File: ps-ppo-7jan25-0,0000-map2_Y05_X09.txt
182.393	704
192.79	566
203.174	494
213.542	462
223.897	592
234.238	1248
244.566	866
254.878	470
265.178	302
275.463	272
285.734	388
295.992	616
306.236	480
316.467	394
326.684	380
336.887	386
347.075	342
357.251	384
367.413	322
377.562	304
387.697	266
397.819	216
407.926	268
418.02	354
428.101	224
438.169	198
448.223	172
458.264	170
468.291	232
478.306	388
488.307	458
498.294	212
508.269	254
518.23	324
528.177	374
538.113	794
548.034	476
557.942	498
567.838	2628
577.72	1534
587.589	584
597.446	446
607.289	238
617.119	216
626.936	286
636.741	324
646.533	240
656.313	214
666.078	168
675.831	164
685.571	184
695.299	156
705.014	186
714.716	226
724.406	192
734.082	198
743.746	256
753.398	296
763.037	210
772.664	200
782.278	212
791.879	192
801.467	190
811.044	214
820.608	230
830.16	784
839.699	372
849.226	286
858.741	250
868.243	208
877.731	204
887.209	184
896.674	174
906.128	184
915.569	172
924.997	186
934.414	198
943.818	248
953.211	518
962.59	868
971.958	438
981.314	230
990.659	244
999.99	208
1009.31	194
1018.62	222
1027.91	264
1037.2	288
1046.47	240
1055.73	216
1064.98	206
1074.22	206
1083.44	204
1092.65	210
1101.86	232
1111.05	860
1120.22	380
1129.39	254
1138.54	246
1147.69	232
1156.82	236
1165.94	270
1175.05	262
1184.14	572
1193.23	438
1202.3	466
1211.36	300
1220.41	234
1229.45	358
1238.48	268
1247.5	242
1256.5	226
1265.49	228
1274.48	278
1283.45	352
1292.41	494
1301.36	1550
1310.29	1300
1319.22	558
1328.13	464
1337.04	366
1345.93	364
1354.81	368
1363.68	290
1372.54	550
1381.38	1052
1390.22	394
1399.05	282
1407.86	284
1416.66	326
1425.46	414
1434.24	484
1443.01	522
1451.77	388
1460.52	364
1469.25	378
1477.98	356
1486.7	312
1495.4	306
1504.1	292
1512.78	298
1521.45	276
1530.11	270
1538.76	254
1547.41	264
1556.03	294
1564.65	304
1573.26	364
1581.86	480
1590.45	756
1599.02	1368
1607.59	1308
1616.14	732
1624.69	362
1633.22	284
1641.75	244
1650.26	260
1658.76	212
1667.26	234
1675.74	226
1684.21	218
1692.67	266
1701.12	250
1709.56	250
1717.99	238
1726.41	214
1734.82	218
1743.22	226
1751.61	236
1759.99	204
1768.36	218
1776.71	200
1785.06	222
1793.4	230
1801.73	208
1810.04	218
1818.35	220
1826.65	202
1834.94	208
1843.21	208
1851.48	198
1859.74	208
1867.98	210
1876.22	214
1884.45	212
1892.67	194
1900.87	224
1909.07	230
1917.26	212
1925.43	224
1933.6	212
1941.76	224
1949.91	206
1958.05	202
1966.17	228
1974.29	208
1982.4	230
1990.5	230
1998.59	232
2006.67	226
2014.74	204
2022.8	210
2030.85	230
2038.89	234
2046.92	222
2054.94	232
2062.95	214
2070.96	206
2078.95	222
2086.93	212
2094.91	216
2102.87	210
2110.83	224
2118.77	214
2126.71	220
2134.63	226
2142.55	196
2150.46	224
2158.35	224
2166.24	220
2174.12	236
2181.99	198
2189.85	222
2197.7	216
2205.55	234
2213.38	206
2221.2	216
2229.02	214
2236.82	204
2244.62	212
2252.4	208
2260.18	224
2267.95	200
2275.71	210
2283.46	214
2291.2	206
2298.93	222
2306.65	228
2314.37	212
2322.07	222
2329.77	232
2337.45	226
2345.13	222
2352.8	214
2360.46	218
2368.11	222
2375.75	210
2383.38	212
2391.01	230
2398.62	226
2406.23	220
2413.82	238
2421.41	208
2428.99	230
2436.56	216
2444.12	206
2449.79	208

File: ps-ppo-7jan25-0,0000-map2_Y05_X10.txt
182.393	708
192.79	640
203.174	558
213.542	474
223.897	612
234.238	1250
244.566	878
254.878	482
265.178	320
275.463	326
285.734	374
295.992	622
306.236	472
316.467	386
326.684	378
336.887	402
347.075	366
357.251	394
367.413	346
377.562	324
387.697	244
397.819	240
407.926	284
418.02	368
428.101	232
438.169	212
448.223	186
458.264	200
468.291	246
478.306	400
488.307	488
498.294	256
508.269	276
518.23	326
528.177	394
538.113	802
548.034	498
557.942	516
567.838	2668
577.72	1564
587.589	632
597.446	454
607.289	272
617.119	238
626.936	302
636.741	334
646.533	262
656.313	214
666.078	192
675.831	198
685.571	184
695.299	170
705.014	196
714.716	254
724.406	226
734.082	240
743.746	284
753.398	316
763.037	212
772.664	224
782.278	222
791.879	204
801.467	220
811.044	212
820.608	264
830.16	784
839.699	434
849.226	274
858.741	252
868.243	214
877.731	220
887.209	198
896.674	204
906.128	198
915.569	200
924.997	206
934.414	228
943.818	276
953.211	558
962.59	842
971.958	450
981.314	256
990.659	258
999.99	216
1009.31	202
1018.62	244
1027.91	284
1037.2	270
1046.47	252
1055.73	228
1064.98	206
1074.22	212
1083.44	230
1092.65	222
1101.86	282
1111.05	828
1120.22	386
1129.39	266
1138.54	280
1147.69	244
1156.82	254
1165.94	294
1175.05	312
1184.14	574
1193.23	458
1202.3	502
1211.36	322
1220.41	280
1229.45	366
1238.48	278
1247.5	258
1256.5	232
1265.49	282
1274.48	296
1283.45	386
1292.41	530
1301.36	1566
1310.29	1358
1319.22	562
1328.13	480
1337.04	348
1345.93	406
1354.81	382
1363.68	322
1372.54	550
1381.38	1038
1390.22	424
1399.05	308
1407.86	318
1416.66	320
1425.46	428
1434.24	494
1443.01	542
1451.77	410
1460.52	396
1469.25	404
1477.98	372
1486.7	358
1495.4	298
1504.1	316
1512.78	286
1521.45	290
1530.11	288
1538.76	272
1547.41	314
1556.03	314
1564.65	316
1573.26	382
1581.86	482
1590.45	822
1599.02	1380
1607.59	1322
1616.14	760
1624.69	422
1633.22	312
1641.75	294
1650.26	282
1658.76	260
1667.26	256
1675.74	250
1684.21	242
1692.67	274
1701.12	264
1709.56	256
1717.99	264
1726.41	248
1734.82	222
1743.22	232
1751.61	240
1759.99	230
1768.36	254
1776.71	214
1785.06	242
1793.4	236
1801.73	218
1810.04	230
1818.35	228
1826.65	224
1834.94	222
1843.21	218
1851.48	218
1859.74	230
1867.98	220
1876.22	224
1884.45	238
1892.67	226
1900.87	222
1909.07	238
1917.26	238
1925.43	222
1933.6	250
1941.76	226
1949.91	216
1958.05	236
1966.17	214
1974.29	224
1982.4	242
1990.5	236
1998.59	210
2006.67	222
2014.74	224
2022.8	234
2030.85	224
2038.89	244
2046.92	224
2054.94	236
2062.95	228
2070.96	246
2078.95	230
2086.93	222
2094.91	232
2102.87	236
2110.83	216
2118.77	240
2126.71	240
2134.63	230
2142.55	228
2150.46	246
2158.35	214
2166.24	226
2174.12	224
2181.99	222
2189.85	234
2197.7	218
2205.55	234
2213.38	212
2221.2	226
2229.02	218
2236.82	194
2244.62	234
2252.4	226
2260.18	224
2267.95	210
2275.71	216
2283.46	224
2291.2	232
2298.93	224
2306.65	202
2314.37	234
2322.07	236
2329.77	248
2337.45	230
2345.13	222
2352.8	222
2360.46	242
2368.11	220
2375.75	246
2383.38	232
2391.01	236
2398.62	246
2406.23	234
2413.82	230
2421.41	206
2428.99	238
2436.56	220
2444.12	222
2449.79	224

File: ps-ppo-7jan25-0,0000-map2_Y06_X00.txt
182.393	708
192.79	636
203.174	544
213.542	464
223.897	604
234.238	1286
244.566	908
254.878	494
265.178	320
275.463	312
285.734	422
295.992	634
306.236	468
316.467	388
326.684	386
336.887	438
347.075	372
357.251	388
367.413	334
377.562	318
387.697	274
397.819	260
407.926	302
418.02	384
428.101	258
438.169	200
448.223	184
458.264	196
468.291	260
478.306	414
488.307	488
498.294	266
508.269	280
518.23	328
528.177	416
538.113	812
548.034	508
557.942	532
567.838	2696
577.72	1526
587.589	624
597.446	492
607.289	272
617.119	246
626.936	320
636.741	352
646.533	264
656.313	232
666.078	196
675.831	188
685.571	188
695.299	186
705.014	210
714.716	268
724.406	236
734.082	236
743.746	300
753.398	310
763.037	218
772.664	222
782.278	230
791.879	224
801.467	230
811.044	226
820.608	260
830.16	814
839.699	438
849.226	292
858.741	252
868.243	222
877.731	210
887.209	226
896.674	206
906.128	220
915.569	184
924.997	204
934.414	230
943.818	280
953.211	564
962.59	914
971.958	502
981.314	288
990.659	280
999.99	226
1009.31	210
1018.62	270
1027.91	298
1037.2	300
1046.47	272
1055.73	204
1064.98	202
1074.22	232
1083.44	230
1092.65	232
1101.86	262
1111.05	870
1120.22	404
1129.39	298
1138.54	288
1147.69	258
1156.82	296
1165.94	278
1175.05	298
1184.14	586
1193.23	490
1202.3	516
1211.36	348
1220.41	264
1229.45	362
1238.48	284
1247.5	258
1256.5	268
1265.49	274
1274.48	312
1283.45	404
1292.41	548
1301.36	1642
1310.29	1392
1319.22	594
1328.13	516
1337.04	388
1345.93	408
1354.81	402
1363.68	336
1372.54	570
1381.38	1080
1390.22	440
1399.05	298
1407.86	326
1416.66	366
1425.46	444
1434.24	532
1443.01	530
1451.77	414
1460.52	450
1469.25	414
1477.98	408
1486.7	328
1495.4	316
1504.1	320
1512.78	306
1521.45	302
1530.11	314
1538.76	308
1547.41	320
1556.03	306
1564.65	332
1573.26	408
1581.86	494
1590.45	812
1599.02	1362
1607.59	1316
1616.14	750
1624.69	424
1633.22	358
1641.75	268
1650.26	268
1658.76	270
1667.26	274
1675.74	270
1684.21	270
1692.67	292
1701.12	278
1709.56	266
1717.99	260
1726.41	250
1734.82	262
1743.22	242
1751.61	238
1759.99	248
1768.36	254
1776.71	262
1785.06	244
1793.4	238
1801.73	244
1810.04	242
1818.35	240
1826.65	242
1834.94	252
1843.21	260
1851.48	250
1859.74	244
1867.98	238
1876.22	244
1884.45	224
1892.67	246
1900.87	250
1909.07	244
1917.26	236
1925.43	244
1933.6	236
1941.76	234
1949.91	232
1958.05	234
1966.17	254
1974.29	256
1982.4	234
1990.5	226
1998.59	250
2006.67	246
2014.74	228
2022.8	246
2030.85	264
2038.89	226
2046.92	252
2054.94	226
2062.95	256
2070.96	240
2078.95	234
2086.93	234
2094.91	242
2102.87	242
2110.83	236
2118.77	246
2126.71	226
2134.63	240
2142.55	252
2150.46	232
2158.35	228
2166.24	230
2174.12	252
2181.99	242
2189.85	262
2197.7	240
2205.55	248
2213.38	236
2221.2	238
2229.02	238
2236.82	242
2244.62	234
2252.4	234
2260.18	222
2267.95	248
2275.71	224
2283.46	246
2291.2	244
2298.93	242
2306.65	244
2314.37	242
2322.07	242
2329.77	222
2337.45	248
2345.13	220
2352.8	236
2360.46	230
2368.11	240
2375.75	240
2383.38	240
2391.01	244
2398.62	242
2406.23	242
2413.82	240
2421.41	224
2428.99	216
2436.56	238
2444.12	224
2449.79	236