Folder: NRC_SU25_Spectral_Classification/Mixture_Classification/Jesse_Dataset_v2/Pure Raman/Polypropylene oxide/633nm (part 8)

File: ps-ppo-7jan25-0,0000-map2_Y08_X08.txt
182.393	690
192.79	574
203.174	522
213.542	452
223.897	592
234.238	1242
244.566	888
254.878	468
265.178	306
275.463	292
285.734	386
295.992	616
306.236	460
316.467	368
326.684	376
336.887	404
347.075	342
357.251	368
367.413	330
377.562	310
387.697	254
397.819	242
407.926	274
418.02	344
428.101	252
438.169	194
448.223	194
458.264	188
468.291	230
478.306	396
488.307	452
498.294	240
508.269	252
518.23	310
528.177	394
538.113	742
548.034	462
557.942	490
567.838	2594
577.72	1534
587.589	612
597.446	450
607.289	248
617.119	232
626.936	260
636.741	318
646.533	258
656.313	212
666.078	174
675.831	158
685.571	180
695.299	176
705.014	190
714.716	240
724.406	208
734.082	204
743.746	258
753.398	292
763.037	204
772.664	186
782.278	224
791.879	202
801.467	186
811.044	226
820.608	244
830.16	762
839.699	402
849.226	246
858.741	254
868.243	198
877.731	196
887.209	202
896.674	168
906.128	172
915.569	168
924.997	182
934.414	198
943.818	250
953.211	512
962.59	862
971.958	456
981.314	240
990.659	244
999.99	206
1009.31	218
1018.62	244
1027.91	258
1037.2	292
1046.47	222
1055.73	206
1064.98	222
1074.22	204
1083.44	228
1092.65	208
1101.86	266
1111.05	824
1120.22	386
1129.39	268
1138.54	258
1147.69	230
1156.82	234
1165.94	274
1175.05	262
1184.14	552
1193.23	438
1202.3	484
1211.36	322
1220.41	230
1229.45	338
1238.48	254
1247.5	220
1256.5	234
1265.49	240
1274.48	280
1283.45	356
1292.41	508
1301.36	1530
1310.29	1312
1319.22	544
1328.13	462
1337.04	356
1345.93	360
1354.81	344
1363.68	342
1372.54	532
1381.38	1060
1390.22	390
1399.05	274
1407.86	284
1416.66	332
1425.46	410
1434.24	444
1443.01	482
1451.77	412
1460.52	368
1469.25	370
1477.98	402
1486.7	320
1495.4	314
1504.1	254
1512.78	272
1521.45	290
1530.11	276
1538.76	282
1547.41	262
1556.03	306
1564.65	304
1573.26	358
1581.86	440
1590.45	768
1599.02	1366
1607.59	1316
1616.14	726
1624.69	410
1633.22	278
1641.75	274
1650.26	242
1658.76	240
1667.26	252
1675.74	240
1684.21	236
1692.67	246
1701.12	260
1709.56	246
1717.99	248
1726.41	224
1734.82	224
1743.22	226
1751.61	230
1759.99	232
1768.36	234
1776.71	218
1785.06	228
1793.4	230
1801.73	214
1810.04	228
1818.35	226
1826.65	230
1834.94	218
1843.21	220
1851.48	222
1859.74	222
1867.98	216
1876.22	232
1884.45	212
1892.67	234
1900.87	230
1909.07	226
1917.26	202
1925.43	208
1933.6	198
1941.76	220
1949.91	222
1958.05	208
1966.17	234
1974.29	216
1982.4	224
1990.5	214
1998.59	214
2006.67	204
2014.74	216
2022.8	220
2030.85	204
2038.89	202
2046.92	222
2054.94	222
2062.95	218
2070.96	230
2078.95	210
2086.93	210
2094.91	210
2102.87	216
2110.83	226
2118.77	208
2126.71	204
2134.63	204
2142.55	206
2150.46	204
2158.35	206
2166.24	218
2174.12	220
2181.99	224
2189.85	234
2197.7	212
2205.55	208
2213.38	234
2221.2	232
2229.02	202
2236.82	212
2244.62	222
2252.4	236
2260.18	212
2267.95	216
2275.71	220
2283.46	216
2291.2	212
2298.93	210
2306.65	232
2314.37	228
2322.07	234
2329.77	234
2337.45	222
2345.13	224
2352.8	216
2360.46	210
2368.11	212
2375.75	238
2383.38	238
2391.01	224
2398.62	226
2406.23	220
2413.82	204
2421.41	218
2428.99	216
2436.56	214
2444.12	236
2449.79	236

File: ps-ppo-7jan25-0,0000-map2_Y09_X01.txt
182.393	702
192.79	596
203.174	504
213.542	448
223.897	576
234.238	1258
244.566	880
254.878	462
265.178	302
275.463	292
285.734	400
295.992	628
306.236	466
316.467	358
326.684	370
336.887	386
347.075	348
357.251	380
367.413	350
377.562	294
387.697	264
397.819	246
407.926	288
418.02	370
428.101	244
438.169	202
448.223	160
458.264	178
468.291	240
478.306	380
488.307	462
498.294	250
508.269	256
518.23	324
528.177	384
538.113	796
548.034	466
557.942	490
567.838	2558
577.72	1608
587.589	600
597.446	468
607.289	248
617.119	220
626.936	254
636.741	326
646.533	246
656.313	210
666.078	176
675.831	182
685.571	178
695.299	166
705.014	178
714.716	238
724.406	200
734.082	204
743.746	282
753.398	294
763.037	198
772.664	200
782.278	238
791.879	194
801.467	194
811.044	212
820.608	260
830.16	788
839.699	394
849.226	270
858.741	238
868.243	206
877.731	202
887.209	186
896.674	180
906.128	200
915.569	180
924.997	198
934.414	224
943.818	252
953.211	550
962.59	878
971.958	454
981.314	248
990.659	220
999.99	222
1009.31	216
1018.62	228
1027.91	278
1037.2	278
1046.47	234
1055.73	202
1064.98	222
1074.22	208
1083.44	196
1092.65	204
1101.86	244
1111.05	802
1120.22	388
1129.39	266
1138.54	264
1147.69	246
1156.82	252
1165.94	254
1175.05	280
1184.14	550
1193.23	458
1202.3	474
1211.36	306
1220.41	244
1229.45	360
1238.48	252
1247.5	226
1256.5	242
1265.49	252
1274.48	278
1283.45	340
1292.41	496
1301.36	1506
1310.29	1302
1319.22	564
1328.13	472
1337.04	348
1345.93	356
1354.81	364
1363.68	322
1372.54	532
1381.38	990
1390.22	412
1399.05	276
1407.86	270
1416.66	322
1425.46	432
1434.24	428
1443.01	502
1451.77	412
1460.52	368
1469.25	372
1477.98	340
1486.7	332
1495.4	292
1504.1	272
1512.78	284
1521.45	278
1530.11	296
1538.76	282
1547.41	290
1556.03	296
1564.65	280
1573.26	346
1581.86	464
1590.45	756
1599.02	1306
1607.59	1274
1616.14	744
1624.69	408
1633.22	308
1641.75	274
1650.26	254
1658.76	266
1667.26	238
1675.74	224
1684.21	242
1692.67	248
1701.12	290
1709.56	254
1717.99	244
1726.41	230
1734.82	220
1743.22	228
1751.61	226
1759.99	220
1768.36	224
1776.71	210
1785.06	216
1793.4	224
1801.73	220
1810.04	216
1818.35	224
1826.65	210
1834.94	220
1843.21	194
1851.48	214
1859.74	216
1867.98	228
1876.22	218
1884.45	222
1892.67	220
1900.87	240
1909.07	212
1917.26	222
1925.43	234
1933.6	218
1941.76	218
1949.91	228
1958.05	228
1966.17	216
1974.29	230
1982.4	206
1990.5	204
1998.59	210
2006.67	218
2014.74	212
2022.8	216
2030.85	200
2038.89	236
2046.92	204
2054.94	236
2062.95	232
2070.96	210
2078.95	218
2086.93	210
2094.91	224
2102.87	238
2110.83	198
2118.77	220
2126.71	228
2134.63	226
2142.55	224
2150.46	218
2158.35	198
2166.24	230
2174.12	208
2181.99	198
2189.85	214
2197.7	228
2205.55	214
2213.38	220
2221.2	226
2229.02	200
2236.82	234
2244.62	224
2252.4	210
2260.18	222
2267.95	220
2275.71	238
2283.46	222
2291.2	212
2298.93	230
2306.65	222
2314.37	226
2322.07	238
2329.77	220
2337.45	214
2345.13	222
2352.8	232
2360.46	210
2368.11	228
2375.75	222
2383.38	226
2391.01	228
2398.62	212
2406.23	238
2413.82	248
2421.41	208
2428.99	206
2436.56	216
2444.12	222
2449.79	206

File: ps-ppo-7jan25-0,0000-map2_Y09_X02.txt
182.393	652
192.79	588
203.174	492
213.542	436
223.897	576
234.238	1220
244.566	864
254.878	464
265.178	328
275.463	256
285.734	372
295.992	624
306.236	450
316.467	356
326.684	348
336.887	412
347.075	354
357.251	352
367.413	312
377.562	286
387.697	244
397.819	224
407.926	252
418.02	330
428.101	240
438.169	180
448.223	174
458.264	176
468.291	256
478.306	380
488.307	434
498.294	238
508.269	250
518.23	320
528.177	388
538.113	750
548.034	462
557.942	524
567.838	2602
577.72	1552
587.589	596
597.446	430
607.289	210
617.119	206
626.936	262
636.741	322
646.533	252
656.313	210
666.078	186
675.831	170
685.571	164
695.299	170
705.014	168
714.716	260
724.406	224
734.082	190
743.746	268
753.398	264
763.037	186
772.664	200
782.278	208
791.879	184
801.467	184
811.044	196
820.608	222
830.16	746
839.699	390
849.226	252
858.741	220
868.243	182
877.731	186
887.209	176
896.674	176
906.128	172
915.569	166
924.997	172
934.414	190
943.818	240
953.211	524
962.59	870
971.958	434
981.314	234
990.659	198
999.99	200
1009.31	184
1018.62	214
1027.91	260
1037.2	282
1046.47	220
1055.73	186
1064.98	184
1074.22	190
1083.44	194
1092.65	196
1101.86	252
1111.05	802
1120.22	384
1129.39	254
1138.54	248
1147.69	216
1156.82	250
1165.94	264
1175.05	254
1184.14	542
1193.23	450
1202.3	482
1211.36	282
1220.41	252
1229.45	328
1238.48	248
1247.5	222
1256.5	232
1265.49	236
1274.48	252
1283.45	330
1292.41	472
1301.36	1550
1310.29	1324
1319.22	550
1328.13	460
1337.04	346
1345.93	358
1354.81	376
1363.68	300
1372.54	530
1381.38	1020
1390.22	372
1399.05	252
1407.86	274
1416.66	324
1425.46	388
1434.24	460
1443.01	458
1451.77	400
1460.52	384
1469.25	360
1477.98	354
1486.7	306
1495.4	262
1504.1	296
1512.78	278
1521.45	262
1530.11	266
1538.76	260
1547.41	276
1556.03	290
1564.65	300
1573.26	324
1581.86	416
1590.45	728
1599.02	1380
1607.59	1292
1616.14	704
1624.69	392
1633.22	300
1641.75	264
1650.26	244
1658.76	240
1667.26	236
1675.74	218
1684.21	220
1692.67	238
1701.12	248
1709.56	232
1717.99	206
1726.41	210
1734.82	204
1743.22	200
1751.61	222
1759.99	206
1768.36	198
1776.71	188
1785.06	214
1793.4	210
1801.73	208
1810.04	216
1818.35	208
1826.65	210
1834.94	206
1843.21	184
1851.48	214
1859.74	194
1867.98	186
1876.22	198
1884.45	200
1892.67	210
1900.87	206
1909.07	192
1917.26	204
1925.43	206
1933.6	208
1941.76	200
1949.91	200
1958.05	184
1966.17	214
1974.29	182
1982.4	202
1990.5	202
1998.59	216
2006.67	198
2014.74	204
2022.8	214
2030.85	192
2038.89	190
2046.92	206
2054.94	206
2062.95	220
2070.96	206
2078.95	204
2086.93	220
2094.91	200
2102.87	214
2110.83	198
2118.77	210
2126.71	196
2134.63	206
2142.55	206
2150.46	200
2158.35	192
2166.24	214
2174.12	200
2181.99	212
2189.85	198
2197.7	204
2205.55	216
2213.38	200
2221.2	190
2229.02	208
2236.82	200
2244.62	194
2252.4	214
2260.18	202
2267.95	206
2275.71	210
2283.46	208
2291.2	196
2298.93	204
2306.65	216
2314.37	218
2322.07	210
2329.77	210
2337.45	210
2345.13	214
2352.8	216
2360.46	224
2368.11	208
2375.75	214
2383.38	212
2391.01	222
2398.62	240
2406.23	228
2413.82	188
2421.41	196
2428.99	194
2436.56	192
2444.12	186
2449.79	198

File: ps-ppo-7jan25-0,0000-map2_Y09_X03.txt
182.393	680
192.79	590
203.174	512
213.542	446
223.897	568
234.238	1212
244.566	854
254.878	466
265.178	306
275.463	272
285.734	366
295.992	606
306.236	448
316.467	376
326.684	354
336.887	394
347.075	336
357.251	376
367.413	340
377.562	306
387.697	234
397.819	214
407.926	274
418.02	334
428.101	228
438.169	186
448.223	174
458.264	158
468.291	218
478.306	380
488.307	444
498.294	230
508.269	252
518.23	310
528.177	382
538.113	780
548.034	460
557.942	460
567.838	2560
577.72	1526
587.589	580
597.446	430
607.289	238
617.119	204
626.936	262
636.741	294
646.533	244
656.313	204
666.078	182
675.831	178
685.571	166
695.299	168
705.014	154
714.716	258
724.406	188
734.082	214
743.746	274
753.398	294
763.037	204
772.664	198
782.278	212
791.879	172
801.467	202
811.044	194
820.608	228
830.16	772
839.699	380
849.226	228
858.741	218
868.243	198
877.731	172
887.209	174
896.674	170
906.128	172
915.569	176
924.997	182
934.414	200
943.818	240
953.211	520
962.59	874
971.958	452
981.314	230
990.659	212
999.99	192
1009.31	220
1018.62	224
1027.91	220
1037.2	274
1046.47	234
1055.73	202
1064.98	196
1074.22	194
1083.44	188
1092.65	196
1101.86	238
1111.05	802
1120.22	362
1129.39	248
1138.54	258
1147.69	214
1156.82	244
1165.94	284
1175.05	266
1184.14	538
1193.23	448
1202.3	468
1211.36	304
1220.41	236
1229.45	342
1238.48	248
1247.5	228
1256.5	236
1265.49	244
1274.48	258
1283.45	348
1292.41	498
1301.36	1518
1310.29	1304
1319.22	538
1328.13	466
1337.04	342
1345.93	378
1354.81	350
1363.68	300
1372.54	526
1381.38	1038
1390.22	366
1399.05	276
1407.86	260
1416.66	292
1425.46	422
1434.24	470
1443.01	508
1451.77	398
1460.52	390
1469.25	342
1477.98	344
1486.7	316
1495.4	272
1504.1	276
1512.78	274
1521.45	260
1530.11	260
1538.76	278
1547.41	290
1556.03	286
1564.65	288
1573.26	320
1581.86	464
1590.45	746
1599.02	1372
1607.59	1270
1616.14	738
1624.69	390
1633.22	302
1641.75	264
1650.26	242
1658.76	234
1667.26	214
1675.74	214
1684.21	220
1692.67	224
1701.12	226
1709.56	248
1717.99	236
1726.41	220
1734.82	210
1743.22	208
1751.61	204
1759.99	214
1768.36	204
1776.71	214
1785.06	198
1793.4	208
1801.73	196
1810.04	200
1818.35	214
1826.65	200
1834.94	208
1843.21	222
1851.48	198
1859.74	202
1867.98	208
1876.22	212
1884.45	202
1892.67	202
1900.87	200
1909.07	200
1917.26	206
1925.43	216
1933.6	216
1941.76	216
1949.91	202
1958.05	216
1966.17	178
1974.29	214
1982.4	214
1990.5	208
1998.59	194
2006.67	208
2014.74	202
2022.8	220
2030.85	208
2038.89	200
2046.92	208
2054.94	200
2062.95	202
2070.96	198
2078.95	216
2086.93	200
2094.91	208
2102.87	190
2110.83	194
2118.77	218
2126.71	192
2134.63	212
2142.55	214
2150.46	214
2158.35	210
2166.24	218
2174.12	218
2181.99	204
2189.85	214
2197.7	204
2205.55	210
2213.38	194
2221.2	208
2229.02	218
2236.82	200
2244.62	200
2252.4	238
2260.18	216
2267.95	222
2275.71	210
2283.46	208
2291.2	206
2298.93	212
2306.65	212
2314.37	214
2322.07	196
2329.77	210
2337.45	210
2345.13	206
2352.8	224
2360.46	192
2368.11	210
2375.75	214
2383.38	218
2391.01	228
2398.62	246
2406.23	194
2413.82	218
2421.41	220
2428.99	208
2436.56	192
2444.12	218
2449.79	194

File: ps-ppo-7jan25-0,0000-map2_Y09_X04.txt
182.393	654
192.79	598
203.174	522
213.542	438
223.897	550
234.238	1234
244.566	844
254.878	482
265.178	322
275.463	270
285.734	358
295.992	580
306.236	452
316.467	346
326.684	374
336.887	386
347.075	332
357.251	356
367.413	322
377.562	294
387.697	244
397.819	232
407.926	256
418.02	342
428.101	224
438.169	178
448.223	168
458.264	180
468.291	214
478.306	376
488.307	448
498.294	232
508.269	236
518.23	310
528.177	392
538.113	706
548.034	440
557.942	504
567.838	2528
577.72	1592
587.589	580
597.446	422
607.289	234
617.119	218
626.936	260
636.741	314
646.533	236
656.313	220
666.078	158
675.831	152
685.571	170
695.299	154
705.014	168
714.716	228
724.406	220
734.082	208
743.746	264
753.398	284
763.037	206
772.664	180
782.278	194
791.879	202
801.467	186
811.044	194
820.608	220
830.16	754
839.699	410
849.226	242
858.741	248
868.243	194
877.731	184
887.209	180
896.674	170
906.128	172
915.569	162
924.997	172
934.414	200
943.818	240
953.211	516
962.59	874
971.958	442
981.314	238
990.659	232
999.99	200
1009.31	188
1018.62	192
1027.91	268
1037.2	284
1046.47	220
1055.73	196
1064.98	194
1074.22	218
1083.44	204
1092.65	204
1101.86	244
1111.05	822
1120.22	380
1129.39	268
1138.54	258
1147.69	216
1156.82	238
1165.94	270
1175.05	280
1184.14	552
1193.23	478
1202.3	462
1211.36	302
1220.41	234
1229.45	344
1238.48	232
1247.5	216
1256.5	222
1265.49	240
1274.48	282
1283.45	344
1292.41	482
1301.36	1538
1310.29	1344
1319.22	552
1328.13	428
1337.04	340
1345.93	364
1354.81	358
1363.68	312
1372.54	510
1381.38	1026
1390.22	390
1399.05	256
1407.86	272
1416.66	318
1425.46	392
1434.24	422
1443.01	478
1451.77	394
1460.52	378
1469.25	360
1477.98	362
1486.7	298
1495.4	270
1504.1	272
1512.78	278
1521.45	254
1530.11	274
1538.76	268
1547.41	272
1556.03	294
1564.65	290
1573.26	338
1581.86	464
1590.45	718
1599.02	1378
1607.59	1264
1616.14	762
1624.69	404
1633.22	284
1641.75	244
1650.26	254
1658.76	230
1667.26	234
1675.74	222
1684.21	222
1692.67	230
1701.12	220
1709.56	242
1717.99	210
1726.41	216
1734.82	210
1743.22	208
1751.61	206
1759.99	208
1768.36	196
1776.71	218
1785.06	210
1793.4	218
1801.73	204
1810.04	204
1818.35	202
1826.65	202
1834.94	216
1843.21	220
1851.48	214
1859.74	202
1867.98	204
1876.22	206
1884.45	218
1892.67	224
1900.87	204
1909.07	212
1917.26	196
1925.43	198
1933.6	206
1941.76	200
1949.91	212
1958.05	218
1966.17	186
1974.29	220
1982.4	200
1990.5	200
1998.59	214
2006.67	196
2014.74	206
2022.8	216
2030.85	202
2038.89	204
2046.92	212
2054.94	202
2062.95	224
2070.96	212
2078.95	218
2086.93	196
2094.91	200
2102.87	220
2110.83	204
2118.77	212
2126.71	216
2134.63	216
2142.55	208
2150.46	208
2158.35	198
2166.24	202
2174.12	210
2181.99	220
2189.85	212
2197.7	212
2205.55	196
2213.38	202
2221.2	206
2229.02	208
2236.82	210
2244.62	216
2252.4	216
2260.18	220
2267.95	214
2275.71	212
2283.46	202
2291.2	202
2298.93	196
2306.65	208
2314.37	226
2322.07	224
2329.77	198
2337.45	218
2345.13	222
2352.8	216
2360.46	204
2368.11	224
2375.75	196
2383.38	214
2391.01	204
2398.62	216
2406.23	222
2413.82	198
2421.41	230
2428.99	214
2436.56	202
2444.12	214
2449.79	214

File: ps-ppo-7jan25-0,0000-map2_Y09_X05.txt
182.393	660
192.79	586
203.174	506
213.542	422
223.897	556
234.238	1212
244.566	870
254.878	478
265.178	326
275.463	266
285.734	380
295.992	616
306.236	450
316.467	374
326.684	368
336.887	394
347.075	340
357.251	362
367.413	308
377.562	296
387.697	230
397.819	222
407.926	280
418.02	350
428.101	234
438.169	184
448.223	164
458.264	184
468.291	234
478.306	382
488.307	450
498.294	242
508.269	246
518.23	322
528.177	386
538.113	764
548.034	462
557.942	508
567.838	2584
577.72	1544
587.589	594
597.446	434
607.289	230
617.119	204
626.936	254
636.741	308
646.533	232
656.313	202
666.078	172
675.831	168
685.571	168
695.299	178
705.014	166
714.716	254
724.406	210
734.082	210
743.746	254
753.398	288
763.037	202
772.664	196
782.278	222
791.879	194
801.467	186
811.044	212
820.608	224
830.16	810
839.699	402
849.226	274
858.741	248
868.243	206
877.731	202
887.209	174
896.674	176
906.128	196
915.569	180
924.997	168
934.414	218
943.818	228
953.211	568
962.59	912
971.958	462
981.314	260
990.659	238
999.99	186
1009.31	194
1018.62	232
1027.91	274
1037.2	266
1046.47	238
1055.73	218
1064.98	204
1074.22	208
1083.44	200
1092.65	220
1101.86	254
1111.05	814
1120.22	364
1129.39	276
1138.54	252
1147.69	238
1156.82	232
1165.94	258
1175.05	270
1184.14	532
1193.23	418
1202.3	458
1211.36	298
1220.41	236
1229.45	350
1238.48	252
1247.5	232
1256.5	204
1265.49	234
1274.48	276
1283.45	334
1292.41	488
1301.36	1534
1310.29	1310
1319.22	550
1328.13	472
1337.04	348
1345.93	370
1354.81	346
1363.68	302
1372.54	522
1381.38	1014
1390.22	394
1399.05	286
1407.86	288
1416.66	338
1425.46	430
1434.24	470
1443.01	496
1451.77	404
1460.52	360
1469.25	386
1477.98	350
1486.7	314
1495.4	294
1504.1	262
1512.78	262
1521.45	258
1530.11	258
1538.76	252
1547.41	304
1556.03	300
1564.65	296
1573.26	352
1581.86	430
1590.45	730
1599.02	1350
1607.59	1262
1616.14	756
1624.69	408
1633.22	308
1641.75	238
1650.26	234
1658.76	268
1667.26	220
1675.74	228
1684.21	224
1692.67	244
1701.12	262
1709.56	242
1717.99	248
1726.41	228
1734.82	216
1743.22	214
1751.61	218
1759.99	206
1768.36	210
1776.71	228
1785.06	206
1793.4	228
1801.73	218
1810.04	200
1818.35	224
1826.65	216
1834.94	204
1843.21	200
1851.48	208
1859.74	226
1867.98	208
1876.22	212
1884.45	204
1892.67	202
1900.87	206
1909.07	220
1917.26	220
1925.43	216
1933.6	214
1941.76	206
1949.91	224
1958.05	206
1966.17	198
1974.29	214
1982.4	222
1990.5	218
1998.59	210
2006.67	216
2014.74	216
2022.8	214
2030.85	188
2038.89	214
2046.92	210
2054.94	216
2062.95	206
2070.96	218
2078.95	224
2086.93	222
2094.91	212
2102.87	198
2110.83	198
2118.77	202
2126.71	210
2134.63	218
2142.55	214
2150.46	214
2158.35	226
2166.24	212
2174.12	220
2181.99	208
2189.85	194
2197.7	198
2205.55	220
2213.38	220
2221.2	204
2229.02	222
2236.82	216
2244.62	208
2252.4	202
2260.18	204
2267.95	208
2275.71	212
2283.46	206
2291.2	208
2298.93	218
2306.65	218
2314.37	222
2322.07	224
2329.77	210
2337.45	208
2345.13	228
2352.8	206
2360.46	216
2368.11	208
2375.75	208
2383.38	220
2391.01	222
2398.62	210
2406.23	216
2413.82	210
2421.41	208
2428.99	226
2436.56	206
2444.12	212
2449.79	212

File: ps-ppo-7jan25-0,0000-map2_Y09_X06.txt
182.393	652
192.79	604
203.174	496
213.542	426
223.897	570
234.238	1212
244.566	858
254.878	456
265.178	308
275.463	272
285.734	354
295.992	600
306.236	452
316.467	344
326.684	368
336.887	400
347.075	338
357.251	330
367.413	296
377.562	306
387.697	224
397.819	212
407.926	276
418.02	316
428.101	208
438.169	198
448.223	162
458.264	188
468.291	230
478.306	380
488.307	434
498.294	230
508.269	250
518.23	314
528.177	378
538.113	734
548.034	428
557.942	474
567.838	2504
577.72	1538
587.589	548
597.446	416
607.289	254
617.119	206
626.936	280
636.741	302
646.533	230
656.313	198
666.078	170
675.831	160
685.571	162
695.299	166
705.014	172
714.716	240
724.406	214
734.082	212
743.746	264
753.398	272
763.037	198
772.664	184
782.278	212
791.879	176
801.467	188
811.044	200
820.608	224
830.16	768
839.699	392
849.226	252
858.741	240
868.243	208
877.731	192
887.209	190
896.674	176
906.128	174
915.569	192
924.997	194
934.414	192
943.818	258
953.211	500
962.59	866
971.958	446
981.314	226
990.659	250
999.99	200
1009.31	188
1018.62	216
1027.91	258
1037.2	292
1046.47	216
1055.73	188
1064.98	198
1074.22	188
1083.44	200
1092.65	208
1101.86	256
1111.05	790
1120.22	380
1129.39	282
1138.54	250
1147.69	214
1156.82	230
1165.94	278
1175.05	272
1184.14	524
1193.23	424
1202.3	464
1211.36	300
1220.41	228
1229.45	324
1238.48	248
1247.5	222
1256.5	244
1265.49	252
1274.48	250
1283.45	360
1292.41	498
1301.36	1532
1310.29	1266
1319.22	574
1328.13	414
1337.04	326
1345.93	350
1354.81	344
1363.68	300
1372.54	514
1381.38	1030
1390.22	392
1399.05	254
1407.86	266
1416.66	308
1425.46	392
1434.24	434
1443.01	516
1451.77	406
1460.52	354
1469.25	356
1477.98	350
1486.7	314
1495.4	282
1504.1	270
1512.78	256
1521.45	258
1530.11	270
1538.76	266
1547.41	278
1556.03	292
1564.65	292
1573.26	326
1581.86	464
1590.45	760
1599.02	1326
1607.59	1228
1616.14	714
1624.69	396
1633.22	294
1641.75	248
1650.26	230
1658.76	242
1667.26	230
1675.74	220
1684.21	230
1692.67	246
1701.12	240
1709.56	238
1717.99	236
1726.41	206
1734.82	214
1743.22	206
1751.61	204
1759.99	222
1768.36	210
1776.71	208
1785.06	198
1793.4	212
1801.73	214
1810.04	218
1818.35	208
1826.65	226
1834.94	198
1843.21	206
1851.48	210
1859.74	212
1867.98	200
1876.22	208
1884.45	220
1892.67	224
1900.87	228
1909.07	216
1917.26	210
1925.43	200
1933.6	230
1941.76	226
1949.91	222
1958.05	214
1966.17	214
1974.29	192
1982.4	206
1990.5	210
1998.59	206
2006.67	220
2014.74	196
2022.8	218
2030.85	220
2038.89	202
2046.92	206
2054.94	214
2062.95	210
2070.96	224
2078.95	216
2086.93	218
2094.91	218
2102.87	196
2110.83	220
2118.77	210
2126.71	212
2134.63	212
2142.55	212
2150.46	222
2158.35	200
2166.24	210
2174.12	218
2181.99	226
2189.85	198
2197.7	204
2205.55	210
2213.38	204
2221.2	206
2229.02	206
2236.82	210
2244.62	198
2252.4	204
2260.18	208
2267.95	210
2275.71	208
2283.46	214
2291.2	200
2298.93	212
2306.65	212
2314.37	218
2322.07	224
2329.77	232
2337.45	210
2345.13	196
2352.8	216
2360.46	216
2368.11	216
2375.75	226
2383.38	214
2391.01	222
2398.62	248
2406.23	216
2413.82	220
2421.41	222
2428.99	218
2436.56	212
2444.12	208
2449.79	228

File: ps-ppo-7jan25-0,0000-map2_Y09_X08.txt
182.393	682
192.79	584
203.174	490
213.542	458
223.897	596
234.238	1242
244.566	836
254.878	440
265.178	302
275.463	284
285.734	366
295.992	632
306.236	446
316.467	362
326.684	378
336.887	412
347.075	364
357.251	338
367.413	306
377.562	306
387.697	242
397.819	240
407.926	272
418.02	344
428.101	220
438.169	208
448.223	156
458.264	172
468.291	224
478.306	376
488.307	438
498.294	230
508.269	252
518.23	308
528.177	382
538.113	766
548.034	464
557.942	484
567.838	2548
577.72	1518
587.589	594
597.446	446
607.289	240
617.119	206
626.936	260
636.741	300
646.533	240
656.313	208
666.078	164
675.831	162
685.571	172
695.299	174
705.014	182
714.716	258
724.406	208
734.082	204
743.746	270
753.398	288
763.037	204
772.664	200
782.278	204
791.879	188
801.467	188
811.044	214
820.608	222
830.16	768
839.699	396
849.226	248
858.741	218
868.243	188
877.731	192
887.209	186
896.674	184
906.128	160
915.569	184
924.997	182
934.414	188
943.818	256
953.211	522
962.59	880
971.958	444
981.314	232
990.659	224
999.99	194
1009.31	214
1018.62	228
1027.91	262
1037.2	276
1046.47	234
1055.73	208
1064.98	178
1074.22	208
1083.44	218
1092.65	210
1101.86	240
1111.05	832
1120.22	370
1129.39	268
1138.54	246
1147.69	216
1156.82	248
1165.94	280
1175.05	260
1184.14	544
1193.23	440
1202.3	490
1211.36	304
1220.41	234
1229.45	360
1238.48	250
1247.5	234
1256.5	240
1265.49	246
1274.48	272
1283.45	332
1292.41	474
1301.36	1534
1310.29	1348
1319.22	538
1328.13	476
1337.04	350
1345.93	362
1354.81	364
1363.68	296
1372.54	552
1381.38	970
1390.22	398
1399.05	284
1407.86	284
1416.66	332
1425.46	428
1434.24	460
1443.01	488
1451.77	400
1460.52	384
1469.25	352
1477.98	340
1486.7	316
1495.4	282
1504.1	280
1512.78	270
1521.45	276
1530.11	268
1538.76	268
1547.41	278
1556.03	302
1564.65	312
1573.26	354
1581.86	452
1590.45	764
1599.02	1348
1607.59	1322
1616.14	726
1624.69	386
1633.22	306
1641.75	266
1650.26	250
1658.76	250
1667.26	230
1675.74	238
1684.21	236
1692.67	272
1701.12	236
1709.56	258
1717.99	238
1726.41	228
1734.82	202
1743.22	230
1751.61	212
1759.99	230
1768.36	216
1776.71	222
1785.06	212
1793.4	234
1801.73	226
1810.04	206
1818.35	220
1826.65	220
1834.94	198
1843.21	224
1851.48	208
1859.74	196
1867.98	218
1876.22	230
1884.45	212
1892.67	206
1900.87	226
1909.07	232
1917.26	228
1925.43	224
1933.6	214
1941.76	202
1949.91	218
1958.05	218
1966.17	212
1974.29	222
1982.4	208
1990.5	220
1998.59	220
2006.67	212
2014.74	186
2022.8	212
2030.85	212
2038.89	218
2046.92	212
2054.94	216
2062.95	216
2070.96	212
2078.95	208
2086.93	204
2094.91	236
2102.87	220
2110.83	232
2118.77	212
2126.71	212
2134.63	206
2142.55	224
2150.46	224
2158.35	216
2166.24	218
2174.12	224
2181.99	214
2189.85	228
2197.7	212
2205.55	208
2213.38	212
2221.2	238
2229.02	216
2236.82	214
2244.62	228
2252.4	222
2260.18	212
2267.95	208
2275.71	220
2283.46	222
2291.2	218
2298.93	202
2306.65	212
2314.37	224
2322.07	226
2329.77	234
2337.45	194
2345.13	212
2352.8	222
2360.46	192
2368.11	214
2375.75	194
2383.38	232
2391.01	230
2398.62	214
2406.23	226
2413.82	230
2421.41	218
2428.99	212
2436.56	204
2444.12	220
2449.79	212