Folder: NRC_SU25_Spectral_Classification/Mixture_Classification/Jesse_Dataset_v2/Pure Raman/Polypropylene oxide/633nm (part 7)

File: ps-ppo-7jan25-0,0000-map2_Y07_X01.txt
182.393	684
192.79	608
203.174	516
213.542	448
223.897	624
234.238	1254
244.566	908
254.878	480
265.178	312
275.463	280
285.734	368
295.992	634
306.236	486
316.467	398
326.684	388
336.887	448
347.075	340
357.251	368
367.413	324
377.562	314
387.697	268
397.819	230
407.926	292
418.02	362
428.101	232
438.169	196
448.223	170
458.264	184
468.291	240
478.306	404
488.307	458
498.294	226
508.269	274
518.23	330
528.177	396
538.113	730
548.034	452
557.942	518
567.838	2686
577.72	1558
587.589	590
597.446	438
607.289	226
617.119	232
626.936	280
636.741	344
646.533	250
656.313	204
666.078	190
675.831	162
685.571	180
695.299	170
705.014	182
714.716	266
724.406	192
734.082	212
743.746	266
753.398	286
763.037	212
772.664	200
782.278	216
791.879	202
801.467	212
811.044	212
820.608	244
830.16	806
839.699	388
849.226	274
858.741	232
868.243	212
877.731	200
887.209	194
896.674	184
906.128	194
915.569	184
924.997	182
934.414	212
943.818	258
953.211	560
962.59	890
971.958	438
981.314	250
990.659	246
999.99	186
1009.31	200
1018.62	228
1027.91	272
1037.2	292
1046.47	238
1055.73	196
1064.98	210
1074.22	196
1083.44	204
1092.65	196
1101.86	238
1111.05	840
1120.22	410
1129.39	272
1138.54	246
1147.69	240
1156.82	264
1165.94	252
1175.05	270
1184.14	570
1193.23	464
1202.3	448
1211.36	312
1220.41	248
1229.45	360
1238.48	262
1247.5	236
1256.5	228
1265.49	246
1274.48	282
1283.45	356
1292.41	502
1301.36	1526
1310.29	1260
1319.22	562
1328.13	456
1337.04	348
1345.93	380
1354.81	364
1363.68	302
1372.54	546
1381.38	1030
1390.22	400
1399.05	284
1407.86	268
1416.66	318
1425.46	408
1434.24	462
1443.01	516
1451.77	400
1460.52	370
1469.25	370
1477.98	370
1486.7	332
1495.4	284
1504.1	274
1512.78	292
1521.45	288
1530.11	294
1538.76	264
1547.41	278
1556.03	294
1564.65	334
1573.26	342
1581.86	438
1590.45	800
1599.02	1346
1607.59	1302
1616.14	754
1624.69	398
1633.22	292
1641.75	258
1650.26	240
1658.76	228
1667.26	222
1675.74	234
1684.21	244
1692.67	268
1701.12	242
1709.56	248
1717.99	224
1726.41	226
1734.82	192
1743.22	218
1751.61	216
1759.99	222
1768.36	218
1776.71	208
1785.06	204
1793.4	204
1801.73	208
1810.04	228
1818.35	198
1826.65	212
1834.94	208
1843.21	212
1851.48	224
1859.74	214
1867.98	192
1876.22	204
1884.45	202
1892.67	204
1900.87	208
1909.07	210
1917.26	212
1925.43	200
1933.6	208
1941.76	208
1949.91	198
1958.05	222
1966.17	220
1974.29	226
1982.4	228
1990.5	188
1998.59	222
2006.67	204
2014.74	202
2022.8	198
2030.85	214
2038.89	236
2046.92	202
2054.94	210
2062.95	206
2070.96	210
2078.95	216
2086.93	214
2094.91	222
2102.87	220
2110.83	196
2118.77	210
2126.71	206
2134.63	212
2142.55	200
2150.46	212
2158.35	212
2166.24	212
2174.12	218
2181.99	196
2189.85	214
2197.7	202
2205.55	200
2213.38	200
2221.2	200
2229.02	220
2236.82	200
2244.62	210
2252.4	216
2260.18	202
2267.95	198
2275.71	208
2283.46	212
2291.2	208
2298.93	202
2306.65	212
2314.37	232
2322.07	228
2329.77	212
2337.45	194
2345.13	238
2352.8	206
2360.46	206
2368.11	210
2375.75	234
2383.38	202
2391.01	210
2398.62	214
2406.23	216
2413.82	222
2421.41	200
2428.99	190
2436.56	210
2444.12	202
2449.79	212

File: ps-ppo-7jan25-0,0000-map2_Y07_X04.txt
182.393	696
192.79	592
203.174	486
213.542	444
223.897	568
234.238	1272
244.566	878
254.878	462
265.178	296
275.463	274
285.734	332
295.992	592
306.236	466
316.467	354
326.684	360
336.887	374
347.075	340
357.251	352
367.413	328
377.562	304
387.697	226
397.819	226
407.926	280
418.02	344
428.101	196
438.169	184
448.223	166
458.264	168
468.291	230
478.306	380
488.307	450
498.294	258
508.269	254
518.23	306
528.177	376
538.113	738
548.034	456
557.942	494
567.838	2652
577.72	1528
587.589	570
597.446	410
607.289	224
617.119	200
626.936	260
636.741	302
646.533	228
656.313	190
666.078	162
675.831	166
685.571	156
695.299	162
705.014	182
714.716	240
724.406	204
734.082	202
743.746	264
753.398	294
763.037	196
772.664	184
782.278	194
791.879	182
801.467	184
811.044	192
820.608	242
830.16	762
839.699	402
849.226	268
858.741	234
868.243	196
877.731	186
887.209	172
896.674	168
906.128	180
915.569	176
924.997	168
934.414	198
943.818	226
953.211	542
962.59	864
971.958	448
981.314	230
990.659	236
999.99	190
1009.31	192
1018.62	214
1027.91	264
1037.2	270
1046.47	230
1055.73	188
1064.98	186
1074.22	200
1083.44	196
1092.65	198
1101.86	236
1111.05	782
1120.22	386
1129.39	264
1138.54	228
1147.69	220
1156.82	232
1165.94	252
1175.05	266
1184.14	540
1193.23	438
1202.3	446
1211.36	308
1220.41	226
1229.45	344
1238.48	256
1247.5	216
1256.5	232
1265.49	242
1274.48	256
1283.45	354
1292.41	476
1301.36	1556
1310.29	1296
1319.22	540
1328.13	432
1337.04	326
1345.93	358
1354.81	342
1363.68	284
1372.54	518
1381.38	1038
1390.22	396
1399.05	278
1407.86	268
1416.66	326
1425.46	402
1434.24	440
1443.01	464
1451.77	380
1460.52	376
1469.25	374
1477.98	350
1486.7	314
1495.4	286
1504.1	262
1512.78	290
1521.45	244
1530.11	246
1538.76	278
1547.41	276
1556.03	286
1564.65	296
1573.26	336
1581.86	434
1590.45	758
1599.02	1344
1607.59	1246
1616.14	710
1624.69	390
1633.22	288
1641.75	254
1650.26	244
1658.76	232
1667.26	220
1675.74	230
1684.21	246
1692.67	250
1701.12	256
1709.56	234
1717.99	234
1726.41	228
1734.82	234
1743.22	202
1751.61	228
1759.99	200
1768.36	196
1776.71	210
1785.06	214
1793.4	218
1801.73	210
1810.04	202
1818.35	206
1826.65	202
1834.94	206
1843.21	206
1851.48	198
1859.74	210
1867.98	200
1876.22	220
1884.45	216
1892.67	200
1900.87	200
1909.07	222
1917.26	208
1925.43	200
1933.6	210
1941.76	226
1949.91	214
1958.05	210
1966.17	216
1974.29	214
1982.4	188
1990.5	218
1998.59	206
2006.67	218
2014.74	208
2022.8	196
2030.85	200
2038.89	214
2046.92	202
2054.94	204
2062.95	214
2070.96	204
2078.95	212
2086.93	208
2094.91	198
2102.87	214
2110.83	224
2118.77	214
2126.71	200
2134.63	238
2142.55	216
2150.46	212
2158.35	224
2166.24	206
2174.12	214
2181.99	190
2189.85	218
2197.7	218
2205.55	202
2213.38	214
2221.2	196
2229.02	206
2236.82	218
2244.62	218
2252.4	228
2260.18	200
2267.95	218
2275.71	216
2283.46	214
2291.2	206
2298.93	222
2306.65	226
2314.37	220
2322.07	220
2329.77	206
2337.45	214
2345.13	216
2352.8	196
2360.46	216
2368.11	218
2375.75	224
2383.38	196
2391.01	232
2398.62	220
2406.23	210
2413.82	214
2421.41	208
2428.99	210
2436.56	210
2444.12	220
2449.79	214

File: ps-ppo-7jan25-0,0000-map2_Y07_X05.txt
182.393	706
192.79	590
203.174	468
213.542	462
223.897	580
234.238	1266
244.566	832
254.878	470
265.178	306
275.463	286
285.734	358
295.992	622
306.236	470
316.467	360
326.684	352
336.887	396
347.075	344
357.251	354
367.413	322
377.562	298
387.697	238
397.819	232
407.926	280
418.02	332
428.101	220
438.169	192
448.223	164
458.264	162
468.291	226
478.306	392
488.307	428
498.294	228
508.269	262
518.23	316
528.177	386
538.113	756
548.034	450
557.942	496
567.838	2582
577.72	1498
587.589	594
597.446	464
607.289	240
617.119	208
626.936	290
636.741	330
646.533	244
656.313	204
666.078	176
675.831	164
685.571	180
695.299	162
705.014	184
714.716	242
724.406	200
734.082	192
743.746	270
753.398	288
763.037	204
772.664	204
782.278	218
791.879	192
801.467	192
811.044	220
820.608	254
830.16	778
839.699	372
849.226	276
858.741	222
868.243	186
877.731	186
887.209	186
896.674	180
906.128	174
915.569	182
924.997	190
934.414	178
943.818	228
953.211	522
962.59	842
971.958	446
981.314	252
990.659	244
999.99	176
1009.31	194
1018.62	232
1027.91	254
1037.2	274
1046.47	232
1055.73	204
1064.98	186
1074.22	190
1083.44	204
1092.65	206
1101.86	254
1111.05	804
1120.22	376
1129.39	262
1138.54	262
1147.69	228
1156.82	242
1165.94	246
1175.05	286
1184.14	552
1193.23	460
1202.3	448
1211.36	316
1220.41	248
1229.45	356
1238.48	238
1247.5	234
1256.5	222
1265.49	236
1274.48	286
1283.45	344
1292.41	496
1301.36	1508
1310.29	1314
1319.22	560
1328.13	458
1337.04	352
1345.93	350
1354.81	360
1363.68	304
1372.54	504
1381.38	1042
1390.22	426
1399.05	262
1407.86	260
1416.66	312
1425.46	406
1434.24	450
1443.01	512
1451.77	404
1460.52	378
1469.25	366
1477.98	342
1486.7	352
1495.4	280
1504.1	254
1512.78	270
1521.45	276
1530.11	272
1538.76	266
1547.41	280
1556.03	282
1564.65	288
1573.26	348
1581.86	458
1590.45	774
1599.02	1316
1607.59	1296
1616.14	722
1624.69	402
1633.22	298
1641.75	264
1650.26	242
1658.76	230
1667.26	228
1675.74	226
1684.21	240
1692.67	254
1701.12	264
1709.56	226
1717.99	210
1726.41	222
1734.82	214
1743.22	216
1751.61	216
1759.99	218
1768.36	228
1776.71	232
1785.06	220
1793.4	214
1801.73	212
1810.04	214
1818.35	214
1826.65	218
1834.94	228
1843.21	210
1851.48	202
1859.74	198
1867.98	202
1876.22	214
1884.45	214
1892.67	212
1900.87	230
1909.07	208
1917.26	210
1925.43	228
1933.6	212
1941.76	216
1949.91	210
1958.05	216
1966.17	216
1974.29	202
1982.4	218
1990.5	206
1998.59	224
2006.67	208
2014.74	206
2022.8	204
2030.85	214
2038.89	216
2046.92	202
2054.94	222
2062.95	214
2070.96	210
2078.95	208
2086.93	210
2094.91	206
2102.87	206
2110.83	218
2118.77	210
2126.71	220
2134.63	226
2142.55	226
2150.46	216
2158.35	232
2166.24	216
2174.12	204
2181.99	210
2189.85	216
2197.7	208
2205.55	216
2213.38	212
2221.2	220
2229.02	212
2236.82	222
2244.62	214
2252.4	208
2260.18	194
2267.95	212
2275.71	222
2283.46	220
2291.2	222
2298.93	202
2306.65	228
2314.37	230
2322.07	222
2329.77	202
2337.45	216
2345.13	220
2352.8	204
2360.46	216
2368.11	206
2375.75	204
2383.38	226
2391.01	224
2398.62	218
2406.23	216
2413.82	212
2421.41	184
2428.99	208
2436.56	192
2444.12	224
2449.79	202

File: ps-ppo-7jan25-0,0000-map2_Y07_X07.txt
182.393	718
192.79	594
203.174	508
213.542	478
223.897	616
234.238	1232
244.566	866
254.878	470
265.178	316
275.463	264
285.734	394
295.992	620
306.236	456
316.467	386
326.684	376
336.887	374
347.075	360
357.251	348
367.413	302
377.562	324
387.697	242
397.819	240
407.926	270
418.02	332
428.101	258
438.169	190
448.223	176
458.264	170
468.291	228
478.306	410
488.307	446
498.294	226
508.269	274
518.23	302
528.177	340
538.113	762
548.034	476
557.942	492
567.838	2578
577.72	1522
587.589	588
597.446	452
607.289	240
617.119	240
626.936	278
636.741	306
646.533	246
656.313	200
666.078	172
675.831	166
685.571	174
695.299	154
705.014	166
714.716	240
724.406	216
734.082	228
743.746	266
753.398	286
763.037	206
772.664	202
782.278	202
791.879	202
801.467	186
811.044	210
820.608	222
830.16	746
839.699	404
849.226	272
858.741	250
868.243	190
877.731	190
887.209	190
896.674	174
906.128	166
915.569	184
924.997	174
934.414	198
943.818	248
953.211	524
962.59	872
971.958	432
981.314	240
990.659	212
999.99	190
1009.31	192
1018.62	220
1027.91	250
1037.2	260
1046.47	230
1055.73	208
1064.98	210
1074.22	204
1083.44	202
1092.65	200
1101.86	232
1111.05	810
1120.22	352
1129.39	236
1138.54	246
1147.69	228
1156.82	252
1165.94	250
1175.05	280
1184.14	532
1193.23	440
1202.3	462
1211.36	276
1220.41	248
1229.45	342
1238.48	252
1247.5	212
1256.5	202
1265.49	256
1274.48	246
1283.45	334
1292.41	482
1301.36	1540
1310.29	1310
1319.22	548
1328.13	460
1337.04	336
1345.93	362
1354.81	364
1363.68	284
1372.54	506
1381.38	1032
1390.22	400
1399.05	276
1407.86	282
1416.66	306
1425.46	410
1434.24	442
1443.01	528
1451.77	364
1460.52	374
1469.25	372
1477.98	364
1486.7	312
1495.4	276
1504.1	264
1512.78	254
1521.45	236
1530.11	276
1538.76	270
1547.41	266
1556.03	300
1564.65	300
1573.26	328
1581.86	476
1590.45	780
1599.02	1292
1607.59	1288
1616.14	730
1624.69	394
1633.22	300
1641.75	260
1650.26	240
1658.76	238
1667.26	208
1675.74	218
1684.21	226
1692.67	242
1701.12	252
1709.56	268
1717.99	234
1726.41	212
1734.82	212
1743.22	216
1751.61	198
1759.99	214
1768.36	216
1776.71	226
1785.06	202
1793.4	208
1801.73	210
1810.04	210
1818.35	194
1826.65	196
1834.94	200
1843.21	190
1851.48	200
1859.74	208
1867.98	202
1876.22	198
1884.45	216
1892.67	210
1900.87	186
1909.07	208
1917.26	210
1925.43	206
1933.6	190
1941.76	212
1949.91	212
1958.05	212
1966.17	210
1974.29	216
1982.4	208
1990.5	196
1998.59	220
2006.67	224
2014.74	196
2022.8	204
2030.85	202
2038.89	206
2046.92	206
2054.94	200
2062.95	214
2070.96	202
2078.95	206
2086.93	210
2094.91	206
2102.87	218
2110.83	202
2118.77	216
2126.71	202
2134.63	212
2142.55	180
2150.46	198
2158.35	200
2166.24	204
2174.12	198
2181.99	214
2189.85	190
2197.7	192
2205.55	206
2213.38	190
2221.2	196
2229.02	210
2236.82	200
2244.62	210
2252.4	212
2260.18	188
2267.95	198
2275.71	220
2283.46	196
2291.2	214
2298.93	198
2306.65	224
2314.37	224
2322.07	220
2329.77	206
2337.45	218
2345.13	218
2352.8	204
2360.46	204
2368.11	202
2375.75	226
2383.38	212
2391.01	226
2398.62	212
2406.23	192
2413.82	196
2421.41	210
2428.99	212
2436.56	214
2444.12	220
2449.79	206

File: ps-ppo-7jan25-0,0000-map2_Y07_X08.txt
182.393	678
192.79	580
203.174	514
213.542	432
223.897	596
234.238	1246
244.566	848
254.878	480
265.178	322
275.463	276
285.734	374
295.992	602
306.236	464
316.467	344
326.684	368
336.887	408
347.075	318
357.251	342
367.413	306
377.562	300
387.697	244
397.819	234
407.926	276
418.02	326
428.101	230
438.169	182
448.223	166
458.264	172
468.291	226
478.306	376
488.307	444
498.294	230
508.269	244
518.23	298
528.177	374
538.113	750
548.034	452
557.942	470
567.838	2650
577.72	1572
587.589	604
597.446	416
607.289	224
617.119	220
626.936	258
636.741	310
646.533	234
656.313	192
666.078	166
675.831	164
685.571	162
695.299	168
705.014	188
714.716	238
724.406	202
734.082	198
743.746	274
753.398	280
763.037	200
772.664	190
782.278	212
791.879	180
801.467	180
811.044	200
820.608	238
830.16	776
839.699	384
849.226	260
858.741	212
868.243	188
877.731	196
887.209	152
896.674	162
906.128	182
915.569	174
924.997	168
934.414	202
943.818	270
953.211	488
962.59	886
971.958	460
981.314	254
990.659	216
999.99	194
1009.31	186
1018.62	230
1027.91	274
1037.2	248
1046.47	228
1055.73	208
1064.98	196
1074.22	196
1083.44	216
1092.65	192
1101.86	228
1111.05	812
1120.22	354
1129.39	240
1138.54	246
1147.69	228
1156.82	246
1165.94	242
1175.05	276
1184.14	546
1193.23	432
1202.3	444
1211.36	296
1220.41	242
1229.45	334
1238.48	248
1247.5	216
1256.5	228
1265.49	248
1274.48	246
1283.45	322
1292.41	476
1301.36	1478
1310.29	1306
1319.22	558
1328.13	460
1337.04	340
1345.93	350
1354.81	360
1363.68	300
1372.54	528
1381.38	1020
1390.22	408
1399.05	268
1407.86	286
1416.66	316
1425.46	402
1434.24	440
1443.01	484
1451.77	402
1460.52	364
1469.25	362
1477.98	360
1486.7	318
1495.4	282
1504.1	262
1512.78	268
1521.45	272
1530.11	256
1538.76	274
1547.41	268
1556.03	298
1564.65	292
1573.26	354
1581.86	436
1590.45	750
1599.02	1362
1607.59	1254
1616.14	748
1624.69	394
1633.22	276
1641.75	248
1650.26	226
1658.76	226
1667.26	216
1675.74	216
1684.21	230
1692.67	242
1701.12	230
1709.56	238
1717.99	236
1726.41	220
1734.82	214
1743.22	196
1751.61	230
1759.99	200
1768.36	204
1776.71	194
1785.06	200
1793.4	200
1801.73	196
1810.04	202
1818.35	212
1826.65	200
1834.94	212
1843.21	196
1851.48	200
1859.74	204
1867.98	194
1876.22	202
1884.45	186
1892.67	208
1900.87	200
1909.07	204
1917.26	192
1925.43	194
1933.6	214
1941.76	190
1949.91	200
1958.05	210
1966.17	198
1974.29	218
1982.4	210
1990.5	210
1998.59	198
2006.67	214
2014.74	210
2022.8	198
2030.85	212
2038.89	218
2046.92	194
2054.94	230
2062.95	196
2070.96	216
2078.95	218
2086.93	196
2094.91	202
2102.87	210
2110.83	194
2118.77	208
2126.71	206
2134.63	218
2142.55	192
2150.46	200
2158.35	200
2166.24	204
2174.12	214
2181.99	204
2189.85	188
2197.7	210
2205.55	216
2213.38	202
2221.2	210
2229.02	208
2236.82	204
2244.62	206
2252.4	204
2260.18	206
2267.95	214
2275.71	192
2283.46	222
2291.2	190
2298.93	210
2306.65	222
2314.37	208
2322.07	212
2329.77	230
2337.45	224
2345.13	216
2352.8	204
2360.46	208
2368.11	192
2375.75	220
2383.38	214
2391.01	216
2398.62	224
2406.23	210
2413.82	224
2421.41	200
2428.99	212
2436.56	200
2444.12	198
2449.79	216

File: ps-ppo-7jan25-0,0000-map2_Y08_X03.txt
182.393	702
192.79	576
203.174	514
213.542	456
223.897	564
234.238	1256
244.566	870
254.878	448
265.178	284
275.463	276
285.734	378
295.992	620
306.236	460
316.467	346
326.684	376
336.887	396
347.075	326
357.251	352
367.413	314
377.562	294
387.697	250
397.819	234
407.926	268
418.02	352
428.101	228
438.169	182
448.223	168
458.264	166
468.291	226
478.306	376
488.307	440
498.294	236
508.269	254
518.23	310
528.177	384
538.113	764
548.034	440
557.942	476
567.838	2620
577.72	1530
587.589	574
597.446	430
607.289	240
617.119	220
626.936	262
636.741	336
646.533	242
656.313	188
666.078	176
675.831	160
685.571	172
695.299	168
705.014	188
714.716	236
724.406	208
734.082	222
743.746	266
753.398	282
763.037	202
772.664	194
782.278	214
791.879	194
801.467	190
811.044	176
820.608	236
830.16	760
839.699	396
849.226	252
858.741	228
868.243	212
877.731	188
887.209	182
896.674	172
906.128	182
915.569	162
924.997	200
934.414	194
943.818	258
953.211	552
962.59	858
971.958	416
981.314	254
990.659	250
999.99	182
1009.31	182
1018.62	226
1027.91	252
1037.2	278
1046.47	228
1055.73	200
1064.98	190
1074.22	192
1083.44	206
1092.65	218
1101.86	252
1111.05	818
1120.22	370
1129.39	266
1138.54	256
1147.69	230
1156.82	246
1165.94	258
1175.05	270
1184.14	568
1193.23	434
1202.3	472
1211.36	308
1220.41	244
1229.45	342
1238.48	244
1247.5	228
1256.5	232
1265.49	242
1274.48	262
1283.45	346
1292.41	504
1301.36	1516
1310.29	1306
1319.22	564
1328.13	488
1337.04	344
1345.93	356
1354.81	372
1363.68	306
1372.54	512
1381.38	1018
1390.22	394
1399.05	268
1407.86	266
1416.66	314
1425.46	380
1434.24	474
1443.01	478
1451.77	388
1460.52	362
1469.25	354
1477.98	368
1486.7	302
1495.4	284
1504.1	286
1512.78	264
1521.45	268
1530.11	276
1538.76	274
1547.41	264
1556.03	272
1564.65	276
1573.26	332
1581.86	464
1590.45	766
1599.02	1336
1607.59	1296
1616.14	750
1624.69	386
1633.22	278
1641.75	240
1650.26	232
1658.76	238
1667.26	236
1675.74	234
1684.21	228
1692.67	254
1701.12	228
1709.56	252
1717.99	216
1726.41	214
1734.82	222
1743.22	212
1751.61	200
1759.99	226
1768.36	242
1776.71	214
1785.06	228
1793.4	216
1801.73	200
1810.04	202
1818.35	198
1826.65	212
1834.94	206
1843.21	194
1851.48	196
1859.74	200
1867.98	206
1876.22	220
1884.45	208
1892.67	214
1900.87	206
1909.07	202
1917.26	216
1925.43	212
1933.6	198
1941.76	208
1949.91	204
1958.05	194
1966.17	202
1974.29	188
1982.4	214
1990.5	202
1998.59	216
2006.67	208
2014.74	212
2022.8	194
2030.85	216
2038.89	220
2046.92	210
2054.94	206
2062.95	202
2070.96	210
2078.95	214
2086.93	210
2094.91	218
2102.87	200
2110.83	206
2118.77	194
2126.71	212
2134.63	222
2142.55	200
2150.46	228
2158.35	208
2166.24	218
2174.12	206
2181.99	208
2189.85	208
2197.7	200
2205.55	194
2213.38	218
2221.2	212
2229.02	204
2236.82	202
2244.62	216
2252.4	206
2260.18	214
2267.95	208
2275.71	212
2283.46	208
2291.2	206
2298.93	220
2306.65	220
2314.37	222
2322.07	234
2329.77	224
2337.45	204
2345.13	224
2352.8	220
2360.46	198
2368.11	206
2375.75	218
2383.38	208
2391.01	218
2398.62	232
2406.23	210
2413.82	224
2421.41	216
2428.99	196
2436.56	196
2444.12	212
2449.79	208

File: ps-ppo-7jan25-0,0000-map2_Y08_X05.txt
182.393	692
192.79	604
203.174	492
213.542	442
223.897	594
234.238	1274
244.566	856
254.878	458
265.178	312
275.463	258
285.734	380
295.992	602
306.236	478
316.467	378
326.684	372
336.887	398
347.075	350
357.251	358
367.413	312
377.562	300
387.697	248
397.819	234
407.926	266
418.02	330
428.101	244
438.169	164
448.223	186
458.264	182
468.291	238
478.306	384
488.307	470
498.294	246
508.269	234
518.23	306
528.177	368
538.113	782
548.034	466
557.942	504
567.838	2530
577.72	1560
587.589	580
597.446	450
607.289	244
617.119	238
626.936	264
636.741	314
646.533	246
656.313	204
666.078	172
675.831	180
685.571	170
695.299	158
705.014	182
714.716	244
724.406	196
734.082	196
743.746	268
753.398	294
763.037	210
772.664	184
782.278	224
791.879	196
801.467	188
811.044	204
820.608	244
830.16	768
839.699	400
849.226	288
858.741	242
868.243	204
877.731	182
887.209	194
896.674	188
906.128	176
915.569	176
924.997	180
934.414	202
943.818	236
953.211	534
962.59	870
971.958	448
981.314	250
990.659	228
999.99	206
1009.31	206
1018.62	248
1027.91	270
1037.2	288
1046.47	220
1055.73	212
1064.98	200
1074.22	204
1083.44	210
1092.65	222
1101.86	242
1111.05	798
1120.22	400
1129.39	274
1138.54	246
1147.69	226
1156.82	258
1165.94	276
1175.05	266
1184.14	544
1193.23	440
1202.3	460
1211.36	306
1220.41	228
1229.45	348
1238.48	246
1247.5	220
1256.5	234
1265.49	232
1274.48	292
1283.45	352
1292.41	504
1301.36	1520
1310.29	1314
1319.22	548
1328.13	444
1337.04	350
1345.93	354
1354.81	358
1363.68	298
1372.54	542
1381.38	1040
1390.22	402
1399.05	304
1407.86	292
1416.66	314
1425.46	416
1434.24	438
1443.01	498
1451.77	408
1460.52	376
1469.25	370
1477.98	348
1486.7	310
1495.4	290
1504.1	288
1512.78	278
1521.45	258
1530.11	292
1538.76	272
1547.41	270
1556.03	304
1564.65	328
1573.26	350
1581.86	444
1590.45	776
1599.02	1406
1607.59	1286
1616.14	754
1624.69	376
1633.22	322
1641.75	250
1650.26	242
1658.76	238
1667.26	248
1675.74	234
1684.21	244
1692.67	246
1701.12	236
1709.56	270
1717.99	246
1726.41	214
1734.82	230
1743.22	214
1751.61	212
1759.99	208
1768.36	224
1776.71	208
1785.06	236
1793.4	214
1801.73	228
1810.04	222
1818.35	208
1826.65	240
1834.94	210
1843.21	208
1851.48	222
1859.74	204
1867.98	232
1876.22	212
1884.45	200
1892.67	214
1900.87	216
1909.07	232
1917.26	238
1925.43	190
1933.6	212
1941.76	216
1949.91	214
1958.05	220
1966.17	224
1974.29	210
1982.4	214
1990.5	212
1998.59	228
2006.67	222
2014.74	208
2022.8	218
2030.85	216
2038.89	220
2046.92	222
2054.94	236
2062.95	218
2070.96	214
2078.95	202
2086.93	234
2094.91	218
2102.87	230
2110.83	218
2118.77	218
2126.71	230
2134.63	208
2142.55	226
2150.46	206
2158.35	218
2166.24	208
2174.12	202
2181.99	208
2189.85	226
2197.7	222
2205.55	220
2213.38	216
2221.2	208
2229.02	220
2236.82	204
2244.62	226
2252.4	214
2260.18	216
2267.95	210
2275.71	212
2283.46	228
2291.2	208
2298.93	234
2306.65	224
2314.37	224
2322.07	224
2329.77	222
2337.45	232
2345.13	226
2352.8	218
2360.46	220
2368.11	220
2375.75	216
2383.38	242
2391.01	224
2398.62	236
2406.23	234
2413.82	216
2421.41	224
2428.99	212
2436.56	206
2444.12	214
2449.79	210

File: ps-ppo-7jan25-0,0000-map2_Y08_X06.txt
182.393	676
192.79	592
203.174	506
213.542	454
223.897	584
234.238	1274
244.566	870
254.878	472
265.178	318
275.463	302
285.734	378
295.992	628
306.236	446
316.467	362
326.684	368
336.887	408
347.075	352
357.251	376
367.413	328
377.562	332
387.697	246
397.819	242
407.926	274
418.02	338
428.101	240
438.169	200
448.223	180
458.264	182
468.291	238
478.306	376
488.307	442
498.294	232
508.269	264
518.23	324
528.177	390
538.113	770
548.034	452
557.942	516
567.838	2526
577.72	1598
587.589	592
597.446	420
607.289	250
617.119	216
626.936	260
636.741	344
646.533	252
656.313	216
666.078	190
675.831	166
685.571	180
695.299	158
705.014	196
714.716	244
724.406	214
734.082	218
743.746	264
753.398	286
763.037	212
772.664	200
782.278	206
791.879	204
801.467	188
811.044	204
820.608	242
830.16	758
839.699	398
849.226	274
858.741	230
868.243	178
877.731	186
887.209	192
896.674	178
906.128	178
915.569	172
924.997	186
934.414	204
943.818	248
953.211	514
962.59	858
971.958	432
981.314	252
990.659	226
999.99	212
1009.31	190
1018.62	238
1027.91	260
1037.2	298
1046.47	222
1055.73	204
1064.98	204
1074.22	204
1083.44	214
1092.65	210
1101.86	258
1111.05	816
1120.22	382
1129.39	252
1138.54	282
1147.69	236
1156.82	232
1165.94	282
1175.05	278
1184.14	528
1193.23	476
1202.3	470
1211.36	312
1220.41	250
1229.45	350
1238.48	248
1247.5	236
1256.5	218
1265.49	264
1274.48	272
1283.45	360
1292.41	492
1301.36	1540
1310.29	1326
1319.22	556
1328.13	454
1337.04	334
1345.93	368
1354.81	358
1363.68	306
1372.54	534
1381.38	1068
1390.22	384
1399.05	276
1407.86	282
1416.66	334
1425.46	414
1434.24	490
1443.01	502
1451.77	396
1460.52	368
1469.25	360
1477.98	370
1486.7	312
1495.4	294
1504.1	300
1512.78	292
1521.45	288
1530.11	284
1538.76	294
1547.41	298
1556.03	280
1564.65	304
1573.26	362
1581.86	468
1590.45	776
1599.02	1374
1607.59	1238
1616.14	762
1624.69	426
1633.22	306
1641.75	278
1650.26	254
1658.76	252
1667.26	246
1675.74	246
1684.21	244
1692.67	266
1701.12	258
1709.56	242
1717.99	242
1726.41	224
1734.82	250
1743.22	226
1751.61	224
1759.99	244
1768.36	224
1776.71	216
1785.06	196
1793.4	238
1801.73	210
1810.04	222
1818.35	222
1826.65	216
1834.94	216
1843.21	222
1851.48	210
1859.74	198
1867.98	214
1876.22	218
1884.45	224
1892.67	212
1900.87	224
1909.07	208
1917.26	210
1925.43	220
1933.6	222
1941.76	222
1949.91	216
1958.05	212
1966.17	230
1974.29	214
1982.4	220
1990.5	212
1998.59	236
2006.67	228
2014.74	214
2022.8	226
2030.85	228
2038.89	240
2046.92	216
2054.94	216
2062.95	214
2070.96	212
2078.95	212
2086.93	222
2094.91	228
2102.87	210
2110.83	218
2118.77	230
2126.71	228
2134.63	232
2142.55	230
2150.46	226
2158.35	224
2166.24	220
2174.12	204
2181.99	214
2189.85	224
2197.7	214
2205.55	216
2213.38	232
2221.2	200
2229.02	214
2236.82	220
2244.62	220
2252.4	232
2260.18	228
2267.95	226
2275.71	220
2283.46	226
2291.2	214
2298.93	200
2306.65	224
2314.37	222
2322.07	220
2329.77	212
2337.45	214
2345.13	218
2352.8	202
2360.46	228
2368.11	210
2375.75	220
2383.38	228
2391.01	230
2398.62	248
2406.23	218
2413.82	224
2421.41	196
2428.99	214
2436.56	222
2444.12	198
2449.79	222