Folder: NRC_SU25_Spectral_Classification/Mixture_Classification/Jesse_Dataset_v2/Pure Raman/Polypropylene oxide/633nm (part 6)

File: ps-ppo-7jan25-0,0000-map2_Y06_X02.txt
182.393	680
192.79	580
203.174	520
213.542	440
223.897	574
234.238	1240
244.566	862
254.878	466
265.178	296
275.463	292
285.734	366
295.992	632
306.236	444
316.467	374
326.684	376
336.887	374
347.075	320
357.251	348
367.413	316
377.562	302
387.697	248
397.819	224
407.926	256
418.02	332
428.101	230
438.169	172
448.223	162
458.264	170
468.291	224
478.306	406
488.307	438
498.294	222
508.269	254
518.23	288
528.177	374
538.113	764
548.034	440
557.942	518
567.838	2712
577.72	1544
587.589	598
597.446	436
607.289	232
617.119	210
626.936	276
636.741	316
646.533	244
656.313	204
666.078	186
675.831	146
685.571	172
695.299	146
705.014	174
714.716	232
724.406	206
734.082	208
743.746	264
753.398	280
763.037	196
772.664	186
782.278	214
791.879	204
801.467	190
811.044	202
820.608	218
830.16	782
839.699	392
849.226	256
858.741	234
868.243	192
877.731	182
887.209	198
896.674	178
906.128	164
915.569	186
924.997	188
934.414	186
943.818	262
953.211	532
962.59	842
971.958	446
981.314	228
990.659	232
999.99	198
1009.31	196
1018.62	212
1027.91	256
1037.2	272
1046.47	226
1055.73	206
1064.98	198
1074.22	210
1083.44	204
1092.65	202
1101.86	242
1111.05	838
1120.22	366
1129.39	250
1138.54	250
1147.69	216
1156.82	232
1165.94	272
1175.05	294
1184.14	544
1193.23	436
1202.3	456
1211.36	304
1220.41	238
1229.45	334
1238.48	236
1247.5	208
1256.5	202
1265.49	226
1274.48	256
1283.45	344
1292.41	492
1301.36	1582
1310.29	1326
1319.22	532
1328.13	472
1337.04	340
1345.93	368
1354.81	354
1363.68	312
1372.54	540
1381.38	1038
1390.22	416
1399.05	248
1407.86	278
1416.66	306
1425.46	404
1434.24	438
1443.01	486
1451.77	380
1460.52	380
1469.25	368
1477.98	368
1486.7	304
1495.4	272
1504.1	262
1512.78	264
1521.45	258
1530.11	274
1538.76	270
1547.41	284
1556.03	304
1564.65	284
1573.26	358
1581.86	470
1590.45	772
1599.02	1330
1607.59	1250
1616.14	752
1624.69	382
1633.22	312
1641.75	252
1650.26	240
1658.76	208
1667.26	230
1675.74	216
1684.21	234
1692.67	252
1701.12	248
1709.56	220
1717.99	238
1726.41	200
1734.82	210
1743.22	206
1751.61	212
1759.99	204
1768.36	198
1776.71	194
1785.06	218
1793.4	198
1801.73	200
1810.04	200
1818.35	184
1826.65	194
1834.94	200
1843.21	198
1851.48	218
1859.74	202
1867.98	190
1876.22	206
1884.45	208
1892.67	180
1900.87	196
1909.07	204
1917.26	210
1925.43	200
1933.6	214
1941.76	210
1949.91	216
1958.05	198
1966.17	212
1974.29	204
1982.4	202
1990.5	206
1998.59	192
2006.67	208
2014.74	188
2022.8	210
2030.85	208
2038.89	200
2046.92	216
2054.94	192
2062.95	196
2070.96	210
2078.95	202
2086.93	210
2094.91	222
2102.87	196
2110.83	196
2118.77	204
2126.71	196
2134.63	206
2142.55	202
2150.46	218
2158.35	212
2166.24	194
2174.12	208
2181.99	184
2189.85	206
2197.7	212
2205.55	196
2213.38	206
2221.2	200
2229.02	198
2236.82	194
2244.62	206
2252.4	208
2260.18	204
2267.95	204
2275.71	208
2283.46	200
2291.2	208
2298.93	204
2306.65	212
2314.37	194
2322.07	204
2329.77	214
2337.45	210
2345.13	220
2352.8	196
2360.46	198
2368.11	214
2375.75	214
2383.38	202
2391.01	218
2398.62	212
2406.23	210
2413.82	202
2421.41	202
2428.99	184
2436.56	202
2444.12	214
2449.79	206

File: ps-ppo-7jan25-0,0000-map2_Y06_X03.txt
182.393	714
192.79	576
203.174	514
213.542	454
223.897	574
234.238	1272
244.566	888
254.878	470
265.178	296
275.463	282
285.734	386
295.992	612
306.236	448
316.467	370
326.684	376
336.887	424
347.075	350
357.251	330
367.413	328
377.562	318
387.697	254
397.819	232
407.926	278
418.02	344
428.101	240
438.169	184
448.223	178
458.264	168
468.291	232
478.306	390
488.307	426
498.294	228
508.269	246
518.23	318
528.177	368
538.113	772
548.034	434
557.942	490
567.838	2734
577.72	1550
587.589	598
597.446	452
607.289	244
617.119	204
626.936	270
636.741	320
646.533	244
656.313	196
666.078	176
675.831	166
685.571	164
695.299	160
705.014	172
714.716	248
724.406	206
734.082	200
743.746	258
753.398	290
763.037	172
772.664	194
782.278	212
791.879	196
801.467	192
811.044	202
820.608	230
830.16	786
839.699	390
849.226	264
858.741	218
868.243	214
877.731	176
887.209	186
896.674	178
906.128	190
915.569	178
924.997	178
934.414	190
943.818	242
953.211	494
962.59	882
971.958	434
981.314	218
990.659	234
999.99	174
1009.31	210
1018.62	228
1027.91	244
1037.2	284
1046.47	240
1055.73	194
1064.98	178
1074.22	192
1083.44	196
1092.65	224
1101.86	236
1111.05	834
1120.22	358
1129.39	246
1138.54	242
1147.69	216
1156.82	236
1165.94	280
1175.05	280
1184.14	546
1193.23	452
1202.3	462
1211.36	296
1220.41	238
1229.45	360
1238.48	252
1247.5	236
1256.5	228
1265.49	228
1274.48	254
1283.45	358
1292.41	482
1301.36	1530
1310.29	1304
1319.22	550
1328.13	450
1337.04	332
1345.93	340
1354.81	362
1363.68	308
1372.54	520
1381.38	1054
1390.22	410
1399.05	278
1407.86	266
1416.66	306
1425.46	432
1434.24	478
1443.01	514
1451.77	388
1460.52	358
1469.25	400
1477.98	352
1486.7	296
1495.4	294
1504.1	282
1512.78	280
1521.45	262
1530.11	282
1538.76	270
1547.41	260
1556.03	280
1564.65	302
1573.26	340
1581.86	442
1590.45	760
1599.02	1382
1607.59	1278
1616.14	740
1624.69	378
1633.22	290
1641.75	266
1650.26	244
1658.76	230
1667.26	238
1675.74	230
1684.21	232
1692.67	250
1701.12	258
1709.56	234
1717.99	230
1726.41	222
1734.82	228
1743.22	204
1751.61	204
1759.99	194
1768.36	208
1776.71	226
1785.06	226
1793.4	200
1801.73	194
1810.04	216
1818.35	208
1826.65	226
1834.94	226
1843.21	198
1851.48	214
1859.74	198
1867.98	202
1876.22	202
1884.45	198
1892.67	222
1900.87	188
1909.07	210
1917.26	204
1925.43	190
1933.6	216
1941.76	208
1949.91	222
1958.05	196
1966.17	210
1974.29	204
1982.4	212
1990.5	206
1998.59	210
2006.67	200
2014.74	206
2022.8	204
2030.85	204
2038.89	212
2046.92	206
2054.94	200
2062.95	198
2070.96	198
2078.95	206
2086.93	204
2094.91	196
2102.87	206
2110.83	218
2118.77	222
2126.71	198
2134.63	222
2142.55	198
2150.46	220
2158.35	192
2166.24	222
2174.12	188
2181.99	212
2189.85	208
2197.7	198
2205.55	194
2213.38	194
2221.2	210
2229.02	202
2236.82	210
2244.62	194
2252.4	204
2260.18	206
2267.95	212
2275.71	212
2283.46	208
2291.2	220
2298.93	208
2306.65	206
2314.37	212
2322.07	232
2329.77	202
2337.45	206
2345.13	206
2352.8	198
2360.46	224
2368.11	204
2375.75	202
2383.38	204
2391.01	226
2398.62	224
2406.23	206
2413.82	194
2421.41	212
2428.99	206
2436.56	188
2444.12	206
2449.79	202

File: ps-ppo-7jan25-0,0000-map2_Y06_X04.txt
182.393	700
192.79	614
203.174	508
213.542	434
223.897	598
234.238	1260
244.566	830
254.878	470
265.178	314
275.463	272
285.734	368
295.992	620
306.236	464
316.467	356
326.684	368
336.887	398
347.075	336
357.251	340
367.413	330
377.562	294
387.697	262
397.819	228
407.926	272
418.02	330
428.101	224
438.169	180
448.223	172
458.264	158
468.291	230
478.306	380
488.307	416
498.294	234
508.269	246
518.23	310
528.177	380
538.113	772
548.034	436
557.942	494
567.838	2632
577.72	1560
587.589	576
597.446	462
607.289	240
617.119	210
626.936	236
636.741	308
646.533	236
656.313	198
666.078	164
675.831	162
685.571	170
695.299	156
705.014	164
714.716	228
724.406	196
734.082	192
743.746	280
753.398	300
763.037	186
772.664	206
782.278	218
791.879	192
801.467	192
811.044	202
820.608	216
830.16	796
839.699	394
849.226	242
858.741	226
868.243	192
877.731	180
887.209	176
896.674	170
906.128	172
915.569	174
924.997	166
934.414	210
943.818	242
953.211	510
962.59	870
971.958	446
981.314	214
990.659	216
999.99	198
1009.31	196
1018.62	208
1027.91	266
1037.2	280
1046.47	208
1055.73	192
1064.98	210
1074.22	188
1083.44	202
1092.65	202
1101.86	236
1111.05	818
1120.22	404
1129.39	248
1138.54	232
1147.69	230
1156.82	242
1165.94	272
1175.05	250
1184.14	544
1193.23	432
1202.3	454
1211.36	288
1220.41	240
1229.45	330
1238.48	242
1247.5	210
1256.5	222
1265.49	242
1274.48	256
1283.45	340
1292.41	476
1301.36	1502
1310.29	1314
1319.22	550
1328.13	438
1337.04	324
1345.93	344
1354.81	372
1363.68	298
1372.54	514
1381.38	1050
1390.22	388
1399.05	288
1407.86	272
1416.66	322
1425.46	404
1434.24	454
1443.01	482
1451.77	384
1460.52	370
1469.25	346
1477.98	356
1486.7	314
1495.4	296
1504.1	276
1512.78	274
1521.45	276
1530.11	252
1538.76	264
1547.41	262
1556.03	288
1564.65	288
1573.26	338
1581.86	458
1590.45	764
1599.02	1350
1607.59	1298
1616.14	734
1624.69	392
1633.22	288
1641.75	248
1650.26	232
1658.76	246
1667.26	222
1675.74	222
1684.21	216
1692.67	220
1701.12	250
1709.56	236
1717.99	228
1726.41	206
1734.82	198
1743.22	210
1751.61	198
1759.99	208
1768.36	210
1776.71	232
1785.06	204
1793.4	196
1801.73	198
1810.04	208
1818.35	214
1826.65	204
1834.94	198
1843.21	204
1851.48	208
1859.74	220
1867.98	204
1876.22	192
1884.45	202
1892.67	202
1900.87	194
1909.07	202
1917.26	192
1925.43	186
1933.6	188
1941.76	202
1949.91	200
1958.05	202
1966.17	214
1974.29	210
1982.4	204
1990.5	210
1998.59	176
2006.67	190
2014.74	198
2022.8	214
2030.85	208
2038.89	202
2046.92	200
2054.94	172
2062.95	208
2070.96	210
2078.95	212
2086.93	196
2094.91	196
2102.87	214
2110.83	200
2118.77	188
2126.71	188
2134.63	212
2142.55	206
2150.46	196
2158.35	190
2166.24	198
2174.12	210
2181.99	192
2189.85	200
2197.7	206
2205.55	204
2213.38	190
2221.2	224
2229.02	200
2236.82	196
2244.62	206
2252.4	204
2260.18	202
2267.95	196
2275.71	200
2283.46	220
2291.2	196
2298.93	182
2306.65	216
2314.37	208
2322.07	208
2329.77	210
2337.45	204
2345.13	216
2352.8	204
2360.46	200
2368.11	204
2375.75	190
2383.38	210
2391.01	228
2398.62	206
2406.23	210
2413.82	226
2421.41	208
2428.99	220
2436.56	200
2444.12	216
2449.79	212

File: ps-ppo-7jan25-0,0000-map2_Y06_X05.txt
182.393	692
192.79	574
203.174	504
213.542	454
223.897	580
234.238	1220
244.566	814
254.878	476
265.178	320
275.463	278
285.734	394
295.992	620
306.236	448
316.467	394
326.684	390
336.887	388
347.075	330
357.251	348
367.413	322
377.562	306
387.697	240
397.819	220
407.926	258
418.02	340
428.101	230
438.169	192
448.223	158
458.264	158
468.291	226
478.306	408
488.307	440
498.294	222
508.269	256
518.23	314
528.177	376
538.113	782
548.034	442
557.942	504
567.838	2618
577.72	1536
587.589	584
597.446	456
607.289	248
617.119	214
626.936	258
636.741	318
646.533	242
656.313	198
666.078	166
675.831	148
685.571	160
695.299	166
705.014	156
714.716	252
724.406	192
734.082	204
743.746	266
753.398	266
763.037	182
772.664	172
782.278	224
791.879	180
801.467	182
811.044	212
820.608	248
830.16	740
839.699	394
849.226	260
858.741	220
868.243	188
877.731	186
887.209	166
896.674	188
906.128	172
915.569	160
924.997	176
934.414	184
943.818	226
953.211	512
962.59	884
971.958	454
981.314	244
990.659	228
999.99	200
1009.31	190
1018.62	202
1027.91	256
1037.2	268
1046.47	230
1055.73	206
1064.98	198
1074.22	188
1083.44	194
1092.65	216
1101.86	230
1111.05	826
1120.22	372
1129.39	236
1138.54	238
1147.69	222
1156.82	238
1165.94	250
1175.05	282
1184.14	554
1193.23	444
1202.3	470
1211.36	284
1220.41	228
1229.45	330
1238.48	244
1247.5	224
1256.5	214
1265.49	240
1274.48	278
1283.45	346
1292.41	490
1301.36	1558
1310.29	1294
1319.22	528
1328.13	472
1337.04	346
1345.93	360
1354.81	354
1363.68	302
1372.54	546
1381.38	1040
1390.22	414
1399.05	280
1407.86	298
1416.66	316
1425.46	372
1434.24	468
1443.01	466
1451.77	402
1460.52	366
1469.25	348
1477.98	344
1486.7	324
1495.4	264
1504.1	276
1512.78	278
1521.45	254
1530.11	272
1538.76	288
1547.41	256
1556.03	278
1564.65	306
1573.26	346
1581.86	416
1590.45	754
1599.02	1290
1607.59	1256
1616.14	748
1624.69	404
1633.22	318
1641.75	252
1650.26	250
1658.76	234
1667.26	240
1675.74	222
1684.21	228
1692.67	242
1701.12	248
1709.56	232
1717.99	220
1726.41	206
1734.82	200
1743.22	208
1751.61	196
1759.99	220
1768.36	200
1776.71	226
1785.06	202
1793.4	196
1801.73	214
1810.04	228
1818.35	194
1826.65	204
1834.94	198
1843.21	204
1851.48	222
1859.74	194
1867.98	194
1876.22	208
1884.45	204
1892.67	194
1900.87	214
1909.07	234
1917.26	206
1925.43	218
1933.6	210
1941.76	204
1949.91	206
1958.05	214
1966.17	212
1974.29	214
1982.4	214
1990.5	208
1998.59	222
2006.67	204
2014.74	210
2022.8	222
2030.85	222
2038.89	208
2046.92	212
2054.94	218
2062.95	204
2070.96	208
2078.95	228
2086.93	208
2094.91	202
2102.87	212
2110.83	208
2118.77	190
2126.71	202
2134.63	204
2142.55	196
2150.46	208
2158.35	198
2166.24	216
2174.12	206
2181.99	212
2189.85	194
2197.7	194
2205.55	192
2213.38	198
2221.2	200
2229.02	208
2236.82	220
2244.62	192
2252.4	208
2260.18	208
2267.95	204
2275.71	202
2283.46	212
2291.2	206
2298.93	208
2306.65	224
2314.37	216
2322.07	210
2329.77	210
2337.45	206
2345.13	218
2352.8	218
2360.46	196
2368.11	194
2375.75	204
2383.38	200
2391.01	218
2398.62	214
2406.23	212
2413.82	224
2421.41	206
2428.99	216
2436.56	222
2444.12	196
2449.79	200

File: ps-ppo-7jan25-0,0000-map2_Y06_X07.txt
182.393	682
192.79	570
203.174	518
213.542	420
223.897	580
234.238	1234
244.566	866
254.878	482
265.178	288
275.463	258
285.734	364
295.992	610
306.236	444
316.467	360
326.684	376
336.887	382
347.075	356
357.251	360
367.413	320
377.562	294
387.697	216
397.819	218
407.926	254
418.02	350
428.101	204
438.169	180
448.223	160
458.264	152
468.291	222
478.306	396
488.307	426
498.294	230
508.269	252
518.23	308
528.177	380
538.113	748
548.034	424
557.942	488
567.838	2632
577.72	1522
587.589	580
597.446	446
607.289	220
617.119	206
626.936	228
636.741	318
646.533	240
656.313	188
666.078	162
675.831	156
685.571	158
695.299	138
705.014	160
714.716	266
724.406	198
734.082	212
743.746	250
753.398	260
763.037	192
772.664	186
782.278	196
791.879	174
801.467	166
811.044	192
820.608	214
830.16	774
839.699	370
849.226	256
858.741	204
868.243	178
877.731	176
887.209	148
896.674	156
906.128	160
915.569	170
924.997	158
934.414	172
943.818	228
953.211	504
962.59	902
971.958	426
981.314	232
990.659	192
999.99	184
1009.31	190
1018.62	204
1027.91	254
1037.2	244
1046.47	222
1055.73	204
1064.98	192
1074.22	188
1083.44	190
1092.65	192
1101.86	234
1111.05	786
1120.22	364
1129.39	244
1138.54	220
1147.69	216
1156.82	224
1165.94	264
1175.05	258
1184.14	542
1193.23	432
1202.3	436
1211.36	294
1220.41	218
1229.45	314
1238.48	226
1247.5	210
1256.5	210
1265.49	218
1274.48	242
1283.45	340
1292.41	468
1301.36	1542
1310.29	1292
1319.22	498
1328.13	422
1337.04	328
1345.93	368
1354.81	352
1363.68	308
1372.54	518
1381.38	1000
1390.22	366
1399.05	254
1407.86	248
1416.66	296
1425.46	380
1434.24	468
1443.01	456
1451.77	390
1460.52	362
1469.25	346
1477.98	342
1486.7	288
1495.4	284
1504.1	268
1512.78	288
1521.45	260
1530.11	268
1538.76	260
1547.41	242
1556.03	284
1564.65	284
1573.26	338
1581.86	446
1590.45	728
1599.02	1318
1607.59	1258
1616.14	720
1624.69	408
1633.22	280
1641.75	250
1650.26	224
1658.76	232
1667.26	220
1675.74	216
1684.21	220
1692.67	222
1701.12	210
1709.56	222
1717.99	208
1726.41	224
1734.82	200
1743.22	192
1751.61	202
1759.99	202
1768.36	210
1776.71	198
1785.06	206
1793.4	176
1801.73	192
1810.04	210
1818.35	194
1826.65	200
1834.94	178
1843.21	180
1851.48	188
1859.74	188
1867.98	196
1876.22	170
1884.45	216
1892.67	192
1900.87	206
1909.07	204
1917.26	204
1925.43	194
1933.6	190
1941.76	190
1949.91	182
1958.05	206
1966.17	190
1974.29	198
1982.4	192
1990.5	206
1998.59	200
2006.67	200
2014.74	198
2022.8	194
2030.85	204
2038.89	190
2046.92	192
2054.94	204
2062.95	200
2070.96	200
2078.95	188
2086.93	196
2094.91	180
2102.87	196
2110.83	206
2118.77	202
2126.71	190
2134.63	190
2142.55	182
2150.46	186
2158.35	190
2166.24	184
2174.12	202
2181.99	222
2189.85	188
2197.7	202
2205.55	178
2213.38	210
2221.2	196
2229.02	188
2236.82	194
2244.62	212
2252.4	194
2260.18	202
2267.95	182
2275.71	202
2283.46	196
2291.2	202
2298.93	196
2306.65	190
2314.37	202
2322.07	190
2329.77	204
2337.45	196
2345.13	214
2352.8	204
2360.46	204
2368.11	200
2375.75	212
2383.38	196
2391.01	208
2398.62	214
2406.23	220
2413.82	202
2421.41	196
2428.99	188
2436.56	208
2444.12	186
2449.79	204

File: ps-ppo-7jan25-0,0000-map2_Y06_X09.txt
182.393	668
192.79	578
203.174	520
213.542	454
223.897	566
234.238	1238
244.566	848
254.878	450
265.178	298
275.463	292
285.734	392
295.992	606
306.236	464
316.467	348
326.684	368
336.887	390
347.075	350
357.251	372
367.413	306
377.562	304
387.697	254
397.819	236
407.926	270
418.02	316
428.101	244
438.169	180
448.223	166
458.264	174
468.291	242
478.306	390
488.307	456
498.294	236
508.269	266
518.23	328
528.177	386
538.113	762
548.034	440
557.942	516
567.838	2602
577.72	1498
587.589	574
597.446	460
607.289	240
617.119	214
626.936	252
636.741	324
646.533	250
656.313	206
666.078	164
675.831	172
685.571	164
695.299	174
705.014	188
714.716	256
724.406	198
734.082	222
743.746	286
753.398	296
763.037	192
772.664	196
782.278	226
791.879	208
801.467	190
811.044	216
820.608	244
830.16	776
839.699	374
849.226	276
858.741	248
868.243	198
877.731	184
887.209	186
896.674	172
906.128	182
915.569	170
924.997	188
934.414	210
943.818	270
953.211	536
962.59	858
971.958	410
981.314	244
990.659	222
999.99	208
1009.31	204
1018.62	234
1027.91	262
1037.2	286
1046.47	228
1055.73	210
1064.98	198
1074.22	206
1083.44	208
1092.65	198
1101.86	286
1111.05	774
1120.22	368
1129.39	238
1138.54	244
1147.69	226
1156.82	250
1165.94	284
1175.05	274
1184.14	520
1193.23	460
1202.3	468
1211.36	292
1220.41	240
1229.45	350
1238.48	238
1247.5	236
1256.5	246
1265.49	250
1274.48	262
1283.45	358
1292.41	460
1301.36	1582
1310.29	1334
1319.22	536
1328.13	452
1337.04	350
1345.93	366
1354.81	368
1363.68	300
1372.54	512
1381.38	1012
1390.22	396
1399.05	286
1407.86	278
1416.66	352
1425.46	424
1434.24	442
1443.01	496
1451.77	392
1460.52	392
1469.25	356
1477.98	360
1486.7	326
1495.4	302
1504.1	278
1512.78	276
1521.45	274
1530.11	274
1538.76	270
1547.41	272
1556.03	288
1564.65	306
1573.26	340
1581.86	440
1590.45	774
1599.02	1340
1607.59	1326
1616.14	758
1624.69	398
1633.22	290
1641.75	266
1650.26	230
1658.76	250
1667.26	248
1675.74	220
1684.21	248
1692.67	252
1701.12	256
1709.56	238
1717.99	240
1726.41	230
1734.82	224
1743.22	236
1751.61	210
1759.99	204
1768.36	226
1776.71	224
1785.06	214
1793.4	216
1801.73	224
1810.04	212
1818.35	208
1826.65	228
1834.94	192
1843.21	208
1851.48	220
1859.74	220
1867.98	224
1876.22	218
1884.45	204
1892.67	206
1900.87	202
1909.07	200
1917.26	230
1925.43	210
1933.6	224
1941.76	216
1949.91	216
1958.05	214
1966.17	208
1974.29	194
1982.4	222
1990.5	214
1998.59	230
2006.67	224
2014.74	222
2022.8	218
2030.85	220
2038.89	216
2046.92	212
2054.94	222
2062.95	214
2070.96	218
2078.95	220
2086.93	218
2094.91	206
2102.87	212
2110.83	208
2118.77	220
2126.71	206
2134.63	204
2142.55	200
2150.46	210
2158.35	206
2166.24	224
2174.12	212
2181.99	212
2189.85	210
2197.7	216
2205.55	208
2213.38	216
2221.2	210
2229.02	220
2236.82	196
2244.62	226
2252.4	224
2260.18	226
2267.95	224
2275.71	220
2283.46	224
2291.2	226
2298.93	210
2306.65	214
2314.37	226
2322.07	220
2329.77	226
2337.45	214
2345.13	216
2352.8	216
2360.46	220
2368.11	242
2375.75	222
2383.38	212
2391.01	208
2398.62	232
2406.23	214
2413.82	226
2421.41	210
2428.99	218
2436.56	212
2444.12	222
2449.79	212

File: ps-ppo-7jan25-0,0000-map2_Y06_X10.txt
182.393	672
192.79	590
203.174	500
213.542	430
223.897	594
234.238	1204
244.566	832
254.878	478
265.178	310
275.463	292
285.734	414
295.992	642
306.236	446
316.467	352
326.684	384
336.887	420
347.075	350
357.251	366
367.413	326
377.562	328
387.697	252
397.819	238
407.926	294
418.02	362
428.101	228
438.169	206
448.223	186
458.264	202
468.291	240
478.306	412
488.307	470
498.294	266
508.269	276
518.23	324
528.177	406
538.113	764
548.034	474
557.942	476
567.838	2642
577.72	1490
587.589	598
597.446	486
607.289	258
617.119	230
626.936	298
636.741	334
646.533	266
656.313	214
666.078	186
675.831	178
685.571	194
695.299	170
705.014	202
714.716	254
724.406	224
734.082	224
743.746	294
753.398	312
763.037	216
772.664	200
782.278	226
791.879	218
801.467	210
811.044	250
820.608	254
830.16	808
839.699	416
849.226	270
858.741	244
868.243	200
877.731	204
887.209	210
896.674	196
906.128	190
915.569	210
924.997	200
934.414	220
943.818	274
953.211	568
962.59	890
971.958	464
981.314	252
990.659	256
999.99	214
1009.31	222
1018.62	238
1027.91	294
1037.2	288
1046.47	254
1055.73	218
1064.98	220
1074.22	214
1083.44	238
1092.65	232
1101.86	248
1111.05	834
1120.22	396
1129.39	282
1138.54	254
1147.69	238
1156.82	244
1165.94	278
1175.05	290
1184.14	546
1193.23	468
1202.3	476
1211.36	314
1220.41	270
1229.45	366
1238.48	274
1247.5	222
1256.5	244
1265.49	280
1274.48	290
1283.45	354
1292.41	520
1301.36	1546
1310.29	1332
1319.22	566
1328.13	472
1337.04	352
1345.93	408
1354.81	364
1363.68	318
1372.54	530
1381.38	1026
1390.22	416
1399.05	268
1407.86	304
1416.66	336
1425.46	436
1434.24	494
1443.01	486
1451.77	424
1460.52	396
1469.25	380
1477.98	356
1486.7	336
1495.4	302
1504.1	298
1512.78	290
1521.45	282
1530.11	290
1538.76	308
1547.41	318
1556.03	312
1564.65	312
1573.26	360
1581.86	492
1590.45	814
1599.02	1380
1607.59	1292
1616.14	734
1624.69	416
1633.22	322
1641.75	272
1650.26	262
1658.76	250
1667.26	254
1675.74	228
1684.21	262
1692.67	262
1701.12	268
1709.56	276
1717.99	226
1726.41	236
1734.82	260
1743.22	208
1751.61	238
1759.99	248
1768.36	244
1776.71	236
1785.06	254
1793.4	234
1801.73	230
1810.04	222
1818.35	226
1826.65	226
1834.94	228
1843.21	250
1851.48	244
1859.74	242
1867.98	228
1876.22	240
1884.45	224
1892.67	234
1900.87	232
1909.07	222
1917.26	230
1925.43	238
1933.6	224
1941.76	248
1949.91	240
1958.05	228
1966.17	244
1974.29	250
1982.4	224
1990.5	244
1998.59	226
2006.67	222
2014.74	232
2022.8	236
2030.85	242
2038.89	230
2046.92	222
2054.94	224
2062.95	230
2070.96	224
2078.95	226
2086.93	230
2094.91	224
2102.87	246
2110.83	232
2118.77	226
2126.71	236
2134.63	244
2142.55	230
2150.46	238
2158.35	216
2166.24	216
2174.12	214
2181.99	232
2189.85	230
2197.7	240
2205.55	232
2213.38	216
2221.2	222
2229.02	238
2236.82	236
2244.62	234
2252.4	230
2260.18	234
2267.95	236
2275.71	236
2283.46	220
2291.2	244
2298.93	234
2306.65	224
2314.37	234
2322.07	250
2329.77	220
2337.45	252
2345.13	222
2352.8	234
2360.46	216
2368.11	220
2375.75	232
2383.38	234
2391.01	228
2398.62	232
2406.23	244
2413.82	232
2421.41	216
2428.99	228
2436.56	226
2444.12	228
2449.79	230

File: ps-ppo-7jan25-0,0000-map2_Y07_X00.txt
182.393	724
192.79	594
203.174	522
213.542	484
223.897	614
234.238	1306
244.566	904
254.878	490
265.178	328
275.463	308
285.734	404
295.992	632
306.236	468
316.467	374
326.684	394
336.887	410
347.075	368
357.251	372
367.413	320
377.562	334
387.697	266
397.819	262
407.926	298
418.02	366
428.101	266
438.169	210
448.223	206
458.264	200
468.291	262
478.306	420
488.307	486
498.294	232
508.269	272
518.23	342
528.177	392
538.113	816
548.034	440
557.942	518
567.838	2702
577.72	1552
587.589	612
597.446	488
607.289	248
617.119	216
626.936	290
636.741	332
646.533	278
656.313	216
666.078	208
675.831	192
685.571	206
695.299	190
705.014	220
714.716	258
724.406	248
734.082	234
743.746	306
753.398	310
763.037	212
772.664	214
782.278	216
791.879	228
801.467	212
811.044	252
820.608	264
830.16	840
839.699	428
849.226	300
858.741	264
868.243	234
877.731	220
887.209	218
896.674	192
906.128	192
915.569	210
924.997	202
934.414	214
943.818	282
953.211	564
962.59	886
971.958	508
981.314	258
990.659	240
999.99	230
1009.31	214
1018.62	244
1027.91	294
1037.2	308
1046.47	268
1055.73	242
1064.98	232
1074.22	218
1083.44	220
1092.65	240
1101.86	268
1111.05	852
1120.22	416
1129.39	270
1138.54	268
1147.69	254
1156.82	266
1165.94	290
1175.05	300
1184.14	576
1193.23	470
1202.3	502
1211.36	324
1220.41	274
1229.45	382
1238.48	260
1247.5	248
1256.5	264
1265.49	270
1274.48	278
1283.45	380
1292.41	514
1301.36	1606
1310.29	1328
1319.22	558
1328.13	474
1337.04	360
1345.93	384
1354.81	384
1363.68	328
1372.54	568
1381.38	1062
1390.22	436
1399.05	298
1407.86	300
1416.66	374
1425.46	424
1434.24	492
1443.01	498
1451.77	434
1460.52	386
1469.25	372
1477.98	358
1486.7	340
1495.4	316
1504.1	296
1512.78	300
1521.45	300
1530.11	314
1538.76	310
1547.41	304
1556.03	322
1564.65	288
1573.26	370
1581.86	472
1590.45	782
1599.02	1414
1607.59	1314
1616.14	768
1624.69	432
1633.22	320
1641.75	296
1650.26	254
1658.76	260
1667.26	270
1675.74	268
1684.21	246
1692.67	274
1701.12	306
1709.56	264
1717.99	266
1726.41	244
1734.82	226
1743.22	254
1751.61	232
1759.99	232
1768.36	236
1776.71	226
1785.06	236
1793.4	228
1801.73	230
1810.04	234
1818.35	238
1826.65	232
1834.94	226
1843.21	238
1851.48	230
1859.74	246
1867.98	232
1876.22	238
1884.45	242
1892.67	232
1900.87	228
1909.07	234
1917.26	242
1925.43	228
1933.6	238
1941.76	218
1949.91	260
1958.05	240
1966.17	224
1974.29	228
1982.4	240
1990.5	224
1998.59	228
2006.67	222
2014.74	232
2022.8	222
2030.85	238
2038.89	226
2046.92	256
2054.94	254
2062.95	244
2070.96	238
2078.95	236
2086.93	242
2094.91	232
2102.87	222
2110.83	232
2118.77	232
2126.71	220
2134.63	218
2142.55	220
2150.46	236
2158.35	222
2166.24	238
2174.12	246
2181.99	226
2189.85	210
2197.7	238
2205.55	216
2213.38	220
2221.2	232
2229.02	210
2236.82	232
2244.62	232
2252.4	230
2260.18	228
2267.95	220
2275.71	246
2283.46	218
2291.2	228
2298.93	226
2306.65	228
2314.37	240
2322.07	224
2329.77	254
2337.45	248
2345.13	232
2352.8	224
2360.46	210
2368.11	230
2375.75	222
2383.38	236
2391.01	252
2398.62	216
2406.23	240
2413.82	234
2421.41	234
2428.99	216
2436.56	240
2444.12	200
2449.79	230