Folder: NRC_SU25_Spectral_Classification/Mixture_Classification/Jesse_Dataset_v2/Pure Raman/Polypropylene oxide/633nm (part 4)

File: ps-ppo-7jan25-0,0000-map2_Y03_X01.txt
182.393	714
192.79	600
203.174	508
213.542	472
223.897	614
234.238	1340
244.566	910
254.878	472
265.178	336
275.463	304
285.734	420
295.992	642
306.236	462
316.467	392
326.684	380
336.887	416
347.075	352
357.251	358
367.413	352
377.562	330
387.697	256
397.819	238
407.926	294
418.02	364
428.101	236
438.169	214
448.223	172
458.264	188
468.291	238
478.306	406
488.307	458
498.294	254
508.269	282
518.23	328
528.177	392
538.113	778
548.034	448
557.942	526
567.838	2754
577.72	1546
587.589	614
597.446	466
607.289	244
617.119	232
626.936	280
636.741	346
646.533	262
656.313	210
666.078	186
675.831	174
685.571	176
695.299	188
705.014	198
714.716	272
724.406	196
734.082	204
743.746	290
753.398	302
763.037	220
772.664	200
782.278	216
791.879	216
801.467	188
811.044	214
820.608	244
830.16	826
839.699	418
849.226	288
858.741	246
868.243	212
877.731	204
887.209	204
896.674	202
906.128	202
915.569	186
924.997	196
934.414	216
943.818	278
953.211	580
962.59	890
971.958	472
981.314	244
990.659	246
999.99	214
1009.31	218
1018.62	236
1027.91	262
1037.2	298
1046.47	262
1055.73	218
1064.98	214
1074.22	228
1083.44	214
1092.65	220
1101.86	268
1111.05	832
1120.22	414
1129.39	264
1138.54	270
1147.69	226
1156.82	254
1165.94	278
1175.05	304
1184.14	608
1193.23	426
1202.3	486
1211.36	304
1220.41	260
1229.45	346
1238.48	270
1247.5	244
1256.5	264
1265.49	274
1274.48	276
1283.45	354
1292.41	502
1301.36	1592
1310.29	1368
1319.22	600
1328.13	502
1337.04	332
1345.93	384
1354.81	396
1363.68	318
1372.54	546
1381.38	1046
1390.22	426
1399.05	302
1407.86	286
1416.66	374
1425.46	432
1434.24	478
1443.01	504
1451.77	388
1460.52	404
1469.25	362
1477.98	364
1486.7	326
1495.4	310
1504.1	296
1512.78	302
1521.45	292
1530.11	306
1538.76	306
1547.41	308
1556.03	310
1564.65	330
1573.26	350
1581.86	474
1590.45	842
1599.02	1414
1607.59	1288
1616.14	782
1624.69	414
1633.22	330
1641.75	272
1650.26	262
1658.76	258
1667.26	244
1675.74	238
1684.21	260
1692.67	274
1701.12	258
1709.56	258
1717.99	236
1726.41	222
1734.82	230
1743.22	228
1751.61	224
1759.99	230
1768.36	234
1776.71	230
1785.06	232
1793.4	230
1801.73	214
1810.04	240
1818.35	226
1826.65	222
1834.94	214
1843.21	224
1851.48	226
1859.74	216
1867.98	218
1876.22	232
1884.45	220
1892.67	230
1900.87	234
1909.07	230
1917.26	210
1925.43	242
1933.6	210
1941.76	244
1949.91	224
1958.05	224
1966.17	184
1974.29	220
1982.4	206
1990.5	230
1998.59	248
2006.67	216
2014.74	234
2022.8	234
2030.85	224
2038.89	226
2046.92	216
2054.94	236
2062.95	218
2070.96	236
2078.95	232
2086.93	222
2094.91	220
2102.87	232
2110.83	210
2118.77	236
2126.71	224
2134.63	224
2142.55	222
2150.46	220
2158.35	220
2166.24	214
2174.12	228
2181.99	226
2189.85	214
2197.7	228
2205.55	198
2213.38	202
2221.2	216
2229.02	220
2236.82	218
2244.62	206
2252.4	224
2260.18	236
2267.95	218
2275.71	238
2283.46	228
2291.2	224
2298.93	218
2306.65	230
2314.37	220
2322.07	230
2329.77	234
2337.45	232
2345.13	240
2352.8	226
2360.46	216
2368.11	224
2375.75	222
2383.38	240
2391.01	244
2398.62	234
2406.23	232
2413.82	242
2421.41	232
2428.99	214
2436.56	204
2444.12	240
2449.79	238

File: ps-ppo-7jan25-0,0000-map2_Y03_X05.txt
182.393	726
192.79	612
203.174	520
213.542	440
223.897	582
234.238	1262
244.566	846
254.878	476
265.178	310
275.463	282
285.734	360
295.992	608
306.236	468
316.467	356
326.684	372
336.887	400
347.075	348
357.251	348
367.413	324
377.562	318
387.697	242
397.819	242
407.926	276
418.02	348
428.101	216
438.169	182
448.223	172
458.264	178
468.291	234
478.306	424
488.307	424
498.294	230
508.269	244
518.23	306
528.177	378
538.113	756
548.034	440
557.942	522
567.838	2714
577.72	1560
587.589	576
597.446	446
607.289	242
617.119	210
626.936	260
636.741	326
646.533	236
656.313	192
666.078	174
675.831	162
685.571	166
695.299	178
705.014	184
714.716	256
724.406	212
734.082	222
743.746	268
753.398	308
763.037	210
772.664	212
782.278	228
791.879	196
801.467	184
811.044	218
820.608	240
830.16	774
839.699	404
849.226	264
858.741	230
868.243	218
877.731	188
887.209	174
896.674	184
906.128	184
915.569	186
924.997	202
934.414	190
943.818	242
953.211	536
962.59	866
971.958	444
981.314	230
990.659	220
999.99	198
1009.31	208
1018.62	210
1027.91	236
1037.2	286
1046.47	240
1055.73	226
1064.98	212
1074.22	198
1083.44	196
1092.65	224
1101.86	250
1111.05	860
1120.22	372
1129.39	246
1138.54	264
1147.69	224
1156.82	252
1165.94	266
1175.05	274
1184.14	554
1193.23	440
1202.3	480
1211.36	308
1220.41	264
1229.45	338
1238.48	236
1247.5	224
1256.5	226
1265.49	226
1274.48	260
1283.45	350
1292.41	510
1301.36	1650
1310.29	1352
1319.22	538
1328.13	446
1337.04	338
1345.93	384
1354.81	380
1363.68	296
1372.54	554
1381.38	1042
1390.22	398
1399.05	274
1407.86	286
1416.66	326
1425.46	422
1434.24	474
1443.01	532
1451.77	416
1460.52	374
1469.25	360
1477.98	360
1486.7	308
1495.4	294
1504.1	274
1512.78	268
1521.45	266
1530.11	276
1538.76	254
1547.41	280
1556.03	296
1564.65	294
1573.26	366
1581.86	458
1590.45	778
1599.02	1384
1607.59	1244
1616.14	752
1624.69	398
1633.22	314
1641.75	262
1650.26	248
1658.76	244
1667.26	224
1675.74	234
1684.21	226
1692.67	262
1701.12	236
1709.56	244
1717.99	230
1726.41	220
1734.82	228
1743.22	232
1751.61	222
1759.99	200
1768.36	206
1776.71	206
1785.06	212
1793.4	198
1801.73	208
1810.04	212
1818.35	224
1826.65	220
1834.94	224
1843.21	214
1851.48	200
1859.74	210
1867.98	206
1876.22	216
1884.45	206
1892.67	214
1900.87	210
1909.07	224
1917.26	204
1925.43	210
1933.6	200
1941.76	208
1949.91	226
1958.05	224
1966.17	214
1974.29	216
1982.4	216
1990.5	216
1998.59	204
2006.67	222
2014.74	212
2022.8	220
2030.85	230
2038.89	196
2046.92	214
2054.94	206
2062.95	212
2070.96	196
2078.95	206
2086.93	204
2094.91	196
2102.87	222
2110.83	210
2118.77	218
2126.71	214
2134.63	212
2142.55	214
2150.46	220
2158.35	210
2166.24	212
2174.12	216
2181.99	204
2189.85	210
2197.7	206
2205.55	226
2213.38	200
2221.2	204
2229.02	218
2236.82	202
2244.62	216
2252.4	222
2260.18	208
2267.95	210
2275.71	208
2283.46	218
2291.2	238
2298.93	220
2306.65	198
2314.37	204
2322.07	196
2329.77	208
2337.45	236
2345.13	210
2352.8	212
2360.46	222
2368.11	210
2375.75	200
2383.38	212
2391.01	210
2398.62	228
2406.23	230
2413.82	234
2421.41	230
2428.99	204
2436.56	212
2444.12	206
2449.79	220

File: ps-ppo-7jan25-0,0000-map2_Y03_X06.txt
182.393	692
192.79	578
203.174	510
213.542	468
223.897	594
234.238	1254
244.566	896
254.878	472
265.178	314
275.463	272
285.734	392
295.992	640
306.236	466
316.467	358
326.684	378
336.887	406
347.075	354
357.251	380
367.413	324
377.562	340
387.697	246
397.819	228
407.926	284
418.02	348
428.101	246
438.169	178
448.223	162
458.264	180
468.291	240
478.306	404
488.307	446
498.294	240
508.269	248
518.23	298
528.177	358
538.113	760
548.034	460
557.942	522
567.838	2746
577.72	1562
587.589	606
597.446	428
607.289	240
617.119	214
626.936	274
636.741	306
646.533	244
656.313	200
666.078	180
675.831	150
685.571	166
695.299	160
705.014	182
714.716	246
724.406	192
734.082	206
743.746	252
753.398	310
763.037	208
772.664	192
782.278	212
791.879	182
801.467	172
811.044	188
820.608	244
830.16	792
839.699	406
849.226	256
858.741	226
868.243	192
877.731	174
887.209	176
896.674	180
906.128	176
915.569	170
924.997	190
934.414	190
943.818	248
953.211	514
962.59	872
971.958	444
981.314	244
990.659	244
999.99	202
1009.31	204
1018.62	220
1027.91	276
1037.2	278
1046.47	224
1055.73	190
1064.98	206
1074.22	202
1083.44	194
1092.65	202
1101.86	260
1111.05	816
1120.22	360
1129.39	262
1138.54	262
1147.69	236
1156.82	232
1165.94	268
1175.05	284
1184.14	546
1193.23	424
1202.3	460
1211.36	290
1220.41	240
1229.45	362
1238.48	238
1247.5	220
1256.5	212
1265.49	240
1274.48	256
1283.45	358
1292.41	486
1301.36	1532
1310.29	1348
1319.22	544
1328.13	458
1337.04	360
1345.93	366
1354.81	350
1363.68	290
1372.54	540
1381.38	1044
1390.22	398
1399.05	250
1407.86	282
1416.66	316
1425.46	426
1434.24	458
1443.01	508
1451.77	410
1460.52	400
1469.25	346
1477.98	354
1486.7	292
1495.4	296
1504.1	276
1512.78	262
1521.45	266
1530.11	258
1538.76	284
1547.41	270
1556.03	270
1564.65	280
1573.26	346
1581.86	446
1590.45	760
1599.02	1390
1607.59	1362
1616.14	722
1624.69	418
1633.22	282
1641.75	260
1650.26	240
1658.76	236
1667.26	230
1675.74	246
1684.21	246
1692.67	262
1701.12	240
1709.56	242
1717.99	216
1726.41	238
1734.82	202
1743.22	232
1751.61	210
1759.99	216
1768.36	216
1776.71	226
1785.06	196
1793.4	208
1801.73	194
1810.04	212
1818.35	214
1826.65	202
1834.94	206
1843.21	188
1851.48	206
1859.74	198
1867.98	214
1876.22	220
1884.45	208
1892.67	192
1900.87	192
1909.07	204
1917.26	200
1925.43	228
1933.6	218
1941.76	198
1949.91	202
1958.05	192
1966.17	200
1974.29	208
1982.4	202
1990.5	204
1998.59	210
2006.67	204
2014.74	202
2022.8	208
2030.85	204
2038.89	204
2046.92	206
2054.94	216
2062.95	200
2070.96	238
2078.95	204
2086.93	224
2094.91	204
2102.87	208
2110.83	210
2118.77	198
2126.71	224
2134.63	212
2142.55	194
2150.46	216
2158.35	198
2166.24	212
2174.12	222
2181.99	204
2189.85	208
2197.7	204
2205.55	198
2213.38	210
2221.2	210
2229.02	214
2236.82	226
2244.62	202
2252.4	224
2260.18	218
2267.95	196
2275.71	198
2283.46	208
2291.2	202
2298.93	202
2306.65	204
2314.37	220
2322.07	222
2329.77	198
2337.45	226
2345.13	206
2352.8	200
2360.46	204
2368.11	222
2375.75	210
2383.38	218
2391.01	206
2398.62	232
2406.23	216
2413.82	218
2421.41	204
2428.99	194
2436.56	212
2444.12	216
2449.79	192

File: ps-ppo-7jan25-0,0000-map2_Y03_X07.txt
182.393	726
192.79	606
203.174	512
213.542	466
223.897	582
234.238	1276
244.566	860
254.878	458
265.178	346
275.463	294
285.734	394
295.992	624
306.236	464
316.467	344
326.684	374
336.887	390
347.075	354
357.251	334
367.413	336
377.562	300
387.697	246
397.819	222
407.926	302
418.02	370
428.101	238
438.169	212
448.223	162
458.264	168
468.291	222
478.306	380
488.307	476
498.294	238
508.269	264
518.23	310
528.177	386
538.113	752
548.034	424
557.942	514
567.838	2650
577.72	1534
587.589	596
597.446	474
607.289	232
617.119	234
626.936	262
636.741	306
646.533	218
656.313	210
666.078	180
675.831	170
685.571	172
695.299	162
705.014	166
714.716	224
724.406	194
734.082	208
743.746	250
753.398	278
763.037	188
772.664	198
782.278	222
791.879	192
801.467	176
811.044	210
820.608	234
830.16	820
839.699	384
849.226	258
858.741	228
868.243	216
877.731	170
887.209	178
896.674	170
906.128	182
915.569	166
924.997	182
934.414	208
943.818	252
953.211	542
962.59	902
971.958	426
981.314	254
990.659	228
999.99	208
1009.31	202
1018.62	228
1027.91	248
1037.2	270
1046.47	238
1055.73	222
1064.98	210
1074.22	194
1083.44	200
1092.65	212
1101.86	254
1111.05	830
1120.22	390
1129.39	230
1138.54	244
1147.69	250
1156.82	252
1165.94	276
1175.05	278
1184.14	532
1193.23	442
1202.3	466
1211.36	308
1220.41	254
1229.45	334
1238.48	256
1247.5	214
1256.5	228
1265.49	254
1274.48	242
1283.45	354
1292.41	496
1301.36	1584
1310.29	1328
1319.22	574
1328.13	482
1337.04	356
1345.93	360
1354.81	376
1363.68	312
1372.54	544
1381.38	1044
1390.22	420
1399.05	298
1407.86	270
1416.66	312
1425.46	408
1434.24	458
1443.01	486
1451.77	402
1460.52	372
1469.25	386
1477.98	358
1486.7	332
1495.4	280
1504.1	286
1512.78	292
1521.45	256
1530.11	248
1538.76	272
1547.41	304
1556.03	282
1564.65	282
1573.26	366
1581.86	450
1590.45	792
1599.02	1416
1607.59	1348
1616.14	758
1624.69	396
1633.22	302
1641.75	256
1650.26	242
1658.76	234
1667.26	232
1675.74	226
1684.21	224
1692.67	230
1701.12	248
1709.56	250
1717.99	226
1726.41	224
1734.82	208
1743.22	220
1751.61	206
1759.99	224
1768.36	214
1776.71	208
1785.06	194
1793.4	218
1801.73	214
1810.04	206
1818.35	204
1826.65	196
1834.94	200
1843.21	206
1851.48	198
1859.74	212
1867.98	208
1876.22	210
1884.45	210
1892.67	220
1900.87	206
1909.07	204
1917.26	206
1925.43	208
1933.6	212
1941.76	208
1949.91	212
1958.05	198
1966.17	198
1974.29	208
1982.4	208
1990.5	208
1998.59	208
2006.67	216
2014.74	184
2022.8	208
2030.85	222
2038.89	218
2046.92	214
2054.94	196
2062.95	208
2070.96	202
2078.95	228
2086.93	216
2094.91	206
2102.87	204
2110.83	198
2118.77	210
2126.71	200
2134.63	202
2142.55	218
2150.46	202
2158.35	204
2166.24	208
2174.12	200
2181.99	202
2189.85	196
2197.7	200
2205.55	192
2213.38	206
2221.2	208
2229.02	222
2236.82	208
2244.62	212
2252.4	210
2260.18	182
2267.95	188
2275.71	184
2283.46	208
2291.2	188
2298.93	192
2306.65	222
2314.37	204
2322.07	226
2329.77	200
2337.45	218
2345.13	216
2352.8	206
2360.46	220
2368.11	224
2375.75	188
2383.38	218
2391.01	222
2398.62	228
2406.23	206
2413.82	210
2421.41	202
2428.99	218
2436.56	206
2444.12	210
2449.79	216

File: ps-ppo-7jan25-0,0000-map2_Y03_X08.txt
182.393	702
192.79	606
203.174	516
213.542	434
223.897	576
234.238	1304
244.566	864
254.878	442
265.178	288
275.463	286
285.734	368
295.992	638
306.236	466
316.467	388
326.684	364
336.887	398
347.075	334
357.251	386
367.413	322
377.562	312
387.697	260
397.819	230
407.926	266
418.02	358
428.101	222
438.169	172
448.223	170
458.264	190
468.291	232
478.306	388
488.307	468
498.294	232
508.269	264
518.23	330
528.177	394
538.113	800
548.034	468
557.942	498
567.838	2664
577.72	1566
587.589	574
597.446	456
607.289	238
617.119	210
626.936	276
636.741	332
646.533	228
656.313	212
666.078	184
675.831	166
685.571	168
695.299	178
705.014	180
714.716	238
724.406	188
734.082	204
743.746	282
753.398	288
763.037	208
772.664	198
782.278	206
791.879	196
801.467	196
811.044	206
820.608	260
830.16	798
839.699	400
849.226	262
858.741	232
868.243	200
877.731	190
887.209	176
896.674	170
906.128	174
915.569	174
924.997	180
934.414	216
943.818	260
953.211	584
962.59	890
971.958	456
981.314	230
990.659	226
999.99	202
1009.31	212
1018.62	236
1027.91	282
1037.2	268
1046.47	228
1055.73	220
1064.98	194
1074.22	192
1083.44	208
1092.65	200
1101.86	262
1111.05	826
1120.22	368
1129.39	238
1138.54	234
1147.69	232
1156.82	238
1165.94	274
1175.05	280
1184.14	522
1193.23	464
1202.3	484
1211.36	316
1220.41	254
1229.45	358
1238.48	250
1247.5	240
1256.5	238
1265.49	248
1274.48	266
1283.45	350
1292.41	508
1301.36	1542
1310.29	1326
1319.22	558
1328.13	484
1337.04	354
1345.93	354
1354.81	358
1363.68	328
1372.54	518
1381.38	1036
1390.22	392
1399.05	290
1407.86	282
1416.66	318
1425.46	428
1434.24	468
1443.01	498
1451.77	398
1460.52	368
1469.25	382
1477.98	380
1486.7	330
1495.4	288
1504.1	282
1512.78	292
1521.45	276
1530.11	268
1538.76	278
1547.41	290
1556.03	304
1564.65	298
1573.26	374
1581.86	458
1590.45	824
1599.02	1352
1607.59	1274
1616.14	752
1624.69	390
1633.22	298
1641.75	258
1650.26	250
1658.76	246
1667.26	238
1675.74	220
1684.21	230
1692.67	258
1701.12	232
1709.56	220
1717.99	240
1726.41	228
1734.82	206
1743.22	212
1751.61	204
1759.99	216
1768.36	240
1776.71	212
1785.06	210
1793.4	204
1801.73	226
1810.04	220
1818.35	216
1826.65	214
1834.94	206
1843.21	192
1851.48	238
1859.74	210
1867.98	220
1876.22	216
1884.45	214
1892.67	226
1900.87	208
1909.07	210
1917.26	210
1925.43	208
1933.6	224
1941.76	210
1949.91	218
1958.05	228
1966.17	212
1974.29	206
1982.4	202
1990.5	208
1998.59	232
2006.67	204
2014.74	220
2022.8	226
2030.85	212
2038.89	232
2046.92	204
2054.94	208
2062.95	212
2070.96	202
2078.95	212
2086.93	218
2094.91	216
2102.87	196
2110.83	206
2118.77	216
2126.71	208
2134.63	224
2142.55	210
2150.46	202
2158.35	210
2166.24	212
2174.12	212
2181.99	222
2189.85	206
2197.7	214
2205.55	210
2213.38	222
2221.2	200
2229.02	204
2236.82	218
2244.62	220
2252.4	216
2260.18	230
2267.95	220
2275.71	208
2283.46	208
2291.2	230
2298.93	222
2306.65	222
2314.37	234
2322.07	212
2329.77	228
2337.45	228
2345.13	208
2352.8	220
2360.46	218
2368.11	226
2375.75	212
2383.38	224
2391.01	226
2398.62	212
2406.23	246
2413.82	204
2421.41	204
2428.99	218
2436.56	220
2444.12	218
2449.79	196

File: ps-ppo-7jan25-0,0000-map2_Y03_X10.txt
182.393	748
192.79	618
203.174	532
213.542	460
223.897	584
234.238	1294
244.566	862
254.878	498
265.178	308
275.463	304
285.734	408
295.992	668
306.236	498
316.467	410
326.684	378
336.887	452
347.075	364
357.251	378
367.413	356
377.562	344
387.697	268
397.819	286
407.926	312
418.02	374
428.101	272
438.169	218
448.223	198
458.264	214
468.291	272
478.306	426
488.307	486
498.294	256
508.269	282
518.23	344
528.177	406
538.113	802
548.034	488
557.942	528
567.838	2726
577.72	1580
587.589	612
597.446	464
607.289	250
617.119	252
626.936	306
636.741	348
646.533	264
656.313	226
666.078	192
675.831	184
685.571	188
695.299	188
705.014	198
714.716	274
724.406	222
734.082	236
743.746	304
753.398	314
763.037	210
772.664	224
782.278	248
791.879	224
801.467	224
811.044	246
820.608	262
830.16	814
839.699	400
849.226	296
858.741	268
868.243	208
877.731	200
887.209	200
896.674	216
906.128	194
915.569	194
924.997	208
934.414	226
943.818	254
953.211	608
962.59	920
971.958	468
981.314	260
990.659	258
999.99	218
1009.31	220
1018.62	244
1027.91	278
1037.2	312
1046.47	256
1055.73	232
1064.98	228
1074.22	226
1083.44	214
1092.65	232
1101.86	258
1111.05	876
1120.22	406
1129.39	284
1138.54	256
1147.69	256
1156.82	262
1165.94	304
1175.05	294
1184.14	580
1193.23	466
1202.3	490
1211.36	310
1220.41	270
1229.45	368
1238.48	282
1247.5	258
1256.5	256
1265.49	286
1274.48	298
1283.45	384
1292.41	534
1301.36	1608
1310.29	1348
1319.22	582
1328.13	492
1337.04	368
1345.93	386
1354.81	372
1363.68	332
1372.54	568
1381.38	1078
1390.22	416
1399.05	328
1407.86	314
1416.66	354
1425.46	438
1434.24	480
1443.01	532
1451.77	452
1460.52	412
1469.25	378
1477.98	394
1486.7	338
1495.4	320
1504.1	298
1512.78	316
1521.45	302
1530.11	310
1538.76	310
1547.41	306
1556.03	324
1564.65	334
1573.26	376
1581.86	482
1590.45	810
1599.02	1388
1607.59	1338
1616.14	754
1624.69	426
1633.22	322
1641.75	274
1650.26	260
1658.76	268
1667.26	256
1675.74	246
1684.21	258
1692.67	266
1701.12	274
1709.56	274
1717.99	266
1726.41	262
1734.82	242
1743.22	234
1751.61	236
1759.99	258
1768.36	242
1776.71	242
1785.06	238
1793.4	244
1801.73	244
1810.04	238
1818.35	238
1826.65	234
1834.94	232
1843.21	238
1851.48	250
1859.74	232
1867.98	226
1876.22	232
1884.45	232
1892.67	242
1900.87	218
1909.07	246
1917.26	234
1925.43	230
1933.6	224
1941.76	230
1949.91	230
1958.05	216
1966.17	228
1974.29	224
1982.4	236
1990.5	238
1998.59	232
2006.67	232
2014.74	234
2022.8	228
2030.85	228
2038.89	222
2046.92	244
2054.94	224
2062.95	238
2070.96	232
2078.95	246
2086.93	258
2094.91	232
2102.87	230
2110.83	232
2118.77	234
2126.71	218
2134.63	218
2142.55	234
2150.46	216
2158.35	228
2166.24	226
2174.12	230
2181.99	208
2189.85	228
2197.7	244
2205.55	234
2213.38	220
2221.2	224
2229.02	230
2236.82	230
2244.62	240
2252.4	226
2260.18	238
2267.95	222
2275.71	228
2283.46	246
2291.2	238
2298.93	224
2306.65	234
2314.37	230
2322.07	250
2329.77	234
2337.45	232
2345.13	216
2352.8	232
2360.46	220
2368.11	232
2375.75	218
2383.38	248
2391.01	232
2398.62	248
2406.23	240
2413.82	230
2421.41	204
2428.99	212
2436.56	232
2444.12	220
2449.79	232

File: ps-ppo-7jan25-0,0000-map2_Y04_X00.txt
182.393	758
192.79	598
203.174	538
213.542	486
223.897	614
234.238	1274
244.566	924
254.878	478
265.178	314
275.463	294
285.734	436
295.992	644
306.236	516
316.467	422
326.684	396
336.887	402
347.075	378
357.251	392
367.413	360
377.562	356
387.697	312
397.819	264
407.926	302
418.02	360
428.101	272
438.169	226
448.223	210
458.264	188
468.291	264
478.306	444
488.307	500
498.294	266
508.269	292
518.23	340
528.177	424
538.113	822
548.034	482
557.942	502
567.838	2764
577.72	1606
587.589	648
597.446	464
607.289	266
617.119	244
626.936	308
636.741	328
646.533	266
656.313	222
666.078	218
675.831	192
685.571	212
695.299	208
705.014	214
714.716	272
724.406	256
734.082	256
743.746	314
753.398	340
763.037	248
772.664	236
782.278	240
791.879	232
801.467	228
811.044	244
820.608	266
830.16	814
839.699	442
849.226	300
858.741	274
868.243	224
877.731	234
887.209	220
896.674	218
906.128	216
915.569	190
924.997	218
934.414	224
943.818	296
953.211	576
962.59	920
971.958	482
981.314	256
990.659	260
999.99	246
1009.31	234
1018.62	256
1027.91	298
1037.2	320
1046.47	262
1055.73	244
1064.98	238
1074.22	234
1083.44	230
1092.65	258
1101.86	256
1111.05	876
1120.22	408
1129.39	296
1138.54	264
1147.69	270
1156.82	292
1165.94	276
1175.05	326
1184.14	596
1193.23	482
1202.3	526
1211.36	330
1220.41	278
1229.45	390
1238.48	280
1247.5	280
1256.5	258
1265.49	266
1274.48	326
1283.45	364
1292.41	520
1301.36	1618
1310.29	1380
1319.22	604
1328.13	494
1337.04	382
1345.93	404
1354.81	384
1363.68	336
1372.54	594
1381.38	1130
1390.22	430
1399.05	320
1407.86	302
1416.66	370
1425.46	460
1434.24	496
1443.01	538
1451.77	444
1460.52	420
1469.25	400
1477.98	382
1486.7	336
1495.4	318
1504.1	306
1512.78	300
1521.45	306
1530.11	318
1538.76	300
1547.41	316
1556.03	324
1564.65	320
1573.26	386
1581.86	472
1590.45	818
1599.02	1384
1607.59	1358
1616.14	782
1624.69	432
1633.22	326
1641.75	302
1650.26	272
1658.76	254
1667.26	264
1675.74	272
1684.21	278
1692.67	274
1701.12	294
1709.56	272
1717.99	260
1726.41	256
1734.82	252
1743.22	262
1751.61	252
1759.99	242
1768.36	248
1776.71	246
1785.06	262
1793.4	234
1801.73	248
1810.04	238
1818.35	240
1826.65	250
1834.94	230
1843.21	248
1851.48	242
1859.74	250
1867.98	246
1876.22	256
1884.45	226
1892.67	246
1900.87	246
1909.07	232
1917.26	248
1925.43	228
1933.6	240
1941.76	238
1949.91	230
1958.05	246
1966.17	236
1974.29	244
1982.4	242
1990.5	240
1998.59	244
2006.67	226
2014.74	254
2022.8	254
2030.85	240
2038.89	232
2046.92	260
2054.94	236
2062.95	226
2070.96	250
2078.95	256
2086.93	242
2094.91	242
2102.87	228
2110.83	236
2118.77	234
2126.71	232
2134.63	240
2142.55	234
2150.46	234
2158.35	244
2166.24	244
2174.12	242
2181.99	228
2189.85	236
2197.7	220
2205.55	248
2213.38	238
2221.2	236
2229.02	238
2236.82	238
2244.62	228
2252.4	236
2260.18	232
2267.95	234
2275.71	262
2283.46	244
2291.2	230
2298.93	218
2306.65	240
2314.37	250
2322.07	256
2329.77	242
2337.45	242
2345.13	232
2352.8	226
2360.46	244
2368.11	242
2375.75	238
2383.38	230
2391.01	236
2398.62	254
2406.23	242
2413.82	242
2421.41	244
2428.99	232
2436.56	242
2444.12	234
2449.79	244

File: ps-ppo-7jan25-0,0000-map2_Y04_X03.txt
182.393	710
192.79	608
203.174	520
213.542	470
223.897	638
234.238	1260
244.566	876
254.878	466
265.178	302
275.463	276
285.734	364
295.992	584
306.236	460
316.467	396
326.684	398
336.887	410
347.075	346
357.251	360
367.413	312
377.562	306
387.697	246
397.819	232
407.926	262
418.02	358
428.101	232
438.169	180
448.223	174
458.264	176
468.291	234
478.306	364
488.307	436
498.294	236
508.269	236
518.23	324
528.177	384
538.113	796
548.034	446
557.942	522
567.838	2694
577.72	1548
587.589	578
597.446	422
607.289	252
617.119	206
626.936	282
636.741	316
646.533	248
656.313	214
666.078	180
675.831	164
685.571	164
695.299	170
705.014	182
714.716	250
724.406	212
734.082	216
743.746	268
753.398	302
763.037	214
772.664	210
782.278	202
791.879	200
801.467	194
811.044	208
820.608	222
830.16	780
839.699	420
849.226	272
858.741	238
868.243	200
877.731	180
887.209	186
896.674	178
906.128	180
915.569	178
924.997	178
934.414	186
943.818	256
953.211	556
962.59	934
971.958	448
981.314	224
990.659	228
999.99	212
1009.31	196
1018.62	228
1027.91	260
1037.2	276
1046.47	238
1055.73	198
1064.98	194
1074.22	192
1083.44	218
1092.65	216
1101.86	232
1111.05	834
1120.22	374
1129.39	276
1138.54	252
1147.69	224
1156.82	236
1165.94	270
1175.05	276
1184.14	576
1193.23	468
1202.3	472
1211.36	260
1220.41	268
1229.45	338
1238.48	256
1247.5	204
1256.5	244
1265.49	256
1274.48	254
1283.45	350
1292.41	506
1301.36	1574
1310.29	1342
1319.22	538
1328.13	454
1337.04	354
1345.93	358
1354.81	330
1363.68	314
1372.54	532
1381.38	1062
1390.22	390
1399.05	250
1407.86	280
1416.66	324
1425.46	414
1434.24	486
1443.01	478
1451.77	392
1460.52	380
1469.25	378
1477.98	360
1486.7	312
1495.4	292
1504.1	276
1512.78	280
1521.45	272
1530.11	258
1538.76	244
1547.41	278
1556.03	286
1564.65	288
1573.26	348
1581.86	460
1590.45	780
1599.02	1364
1607.59	1264
1616.14	752
1624.69	402
1633.22	326
1641.75	270
1650.26	256
1658.76	242
1667.26	234
1675.74	214
1684.21	226
1692.67	254
1701.12	260
1709.56	230
1717.99	234
1726.41	216
1734.82	222
1743.22	222
1751.61	214
1759.99	210
1768.36	234
1776.71	198
1785.06	202
1793.4	222
1801.73	208
1810.04	202
1818.35	202
1826.65	208
1834.94	212
1843.21	212
1851.48	220
1859.74	206
1867.98	210
1876.22	202
1884.45	196
1892.67	208
1900.87	210
1909.07	198
1917.26	222
1925.43	214
1933.6	214
1941.76	204
1949.91	206
1958.05	218
1966.17	206
1974.29	206
1982.4	206
1990.5	202
1998.59	202
2006.67	198
2014.74	194
2022.8	194
2030.85	212
2038.89	214
2046.92	210
2054.94	208
2062.95	214
2070.96	214
2078.95	208
2086.93	196
2094.91	214
2102.87	216
2110.83	204
2118.77	218
2126.71	202
2134.63	208
2142.55	214
2150.46	198
2158.35	192
2166.24	212
2174.12	198
2181.99	224
2189.85	202
2197.7	184
2205.55	208
2213.38	212
2221.2	210
2229.02	226
2236.82	216
2244.62	208
2252.4	186
2260.18	212
2267.95	196
2275.71	206
2283.46	226
2291.2	216
2298.93	224
2306.65	222
2314.37	230
2322.07	234
2329.77	224
2337.45	210
2345.13	210
2352.8	236
2360.46	208
2368.11	218
2375.75	216
2383.38	218
2391.01	218
2398.62	210
2406.23	236
2413.82	218
2421.41	210
2428.99	212
2436.56	218
2444.12	202
2449.79	206