Folder: NRC_SU25_Spectral_Classification/Mixture_Classification/Jesse_Dataset_v2/Pure Raman/Polypropylene oxide/633nm

Note: README.md
# Spectral Classification Project

This repository contains implementations of various machine learning and deep learning methods for the **one-shot classification of chemical spectra**. The goal is to identify the **chemical identity** of an unknown **Raman spectrum** by finding the best match from a reference library of known spectra.

The project explores and compares **four distinct approaches**, inspired by the methods described in *[Halas et al., ACS Nano, 2023](https://doi.org/10.1021/acsnano.3c05510)*.


---

## Core Concept: Spectral Identification

The fundamental problem is to take a **high-dimensional spectrum** from an unknown sample and accurately identify it by comparing it against a **library of known spectra**. Each method in this repository tackles this problem through a different **feature extraction** and **similarity matching** strategy.

---

## Included Implementations

This repository includes four primary methods for spectral classification:

- `CaPSim` (Characteristic Peak Similarity)
- `CaPSim` with `k-NN` Classifier
- `PCA` (Principal Component Analysis) Classifier
- `Siamese Network` for One-Shot Learning

All methods assume the data is provided in **CSV format**, with one file for the **reference library** and one for the **query spectra**. The **last column** in each file should be named **`Label`** and contain the chemical identifier.

---

### 1. CaPSim (Characteristic Peak Similarity)
**Script:** `CaPSim.py`  
**Approach:** Local peak-based dot-product similarity

**Concept:**  
This method directly implements the approach described in the Halas et al. paper. It assumes that key information in a spectrum is concentrated in a few discrete **characteristic peaks (CPs)**.

**Workflow:**
- **Preprocessing:** Baseline correction and L2 normalization
- **Feature Definition:** Identify most frequent or intense peaks per class → class-specific CPs
- **Feature Extraction:** Extract maximum intensity around CPs for each query
- **Similarity Matching:** Compute mean dot-product (CaPSim score); assign query to class with highest score

---

### 2. CaPSim with k-NN Classifier
**Script:** `CaPSim_kNN.py`  
**Approach:** Local peak-based features with supervised classification

**Concept:**  
An extension of CaPSim that uses the same CP-based features but replaces dot-product similarity with a learned `k-Nearest Neighbors` classifier.

**Workflow:**
- **Preprocessing:** Same as baseline CaPSim
- **Feature Definition:** Global CP set = union of all class CPs
- **Feature Extraction:** Fixed-length feature vectors for all reference spectra
- **Training:** Train a `k-NN` model using cosine distance
- **Classification:** Predict query identity using trained model

---

### 3. PCA (Principal Component Analysis) Classifier
**Script:** `PCA_Classification.py`  
**Approach:** Global shape-based classification in PCA space

**Concept:**  
A benchmark method that uses global spectral shape via PCA. It reduces the dimensionality of the spe

File: ps-ppo-7jan25-0,0000-map2_Y00_X01.txt
182.393	756
192.79	666
203.174	572
213.542	510
223.897	674
234.238	1314
244.566	950
254.878	532
265.178	376
275.463	316
285.734	408
295.992	678
306.236	526
316.467	402
326.684	426
336.887	440
347.075	416
357.251	406
367.413	394
377.562	340
387.697	306
397.819	286
407.926	330
418.02	426
428.101	276
438.169	242
448.223	230
458.264	240
468.291	308
478.306	470
488.307	514
498.294	288
508.269	336
518.23	380
528.177	474
538.113	834
548.034	514
557.942	612
567.838	2882
577.72	1614
587.589	666
597.446	498
607.289	300
617.119	282
626.936	336
636.741	386
646.533	314
656.313	268
666.078	250
675.831	224
685.571	234
695.299	220
705.014	242
714.716	322
724.406	272
734.082	268
743.746	348
753.398	360
763.037	268
772.664	284
782.278	300
791.879	254
801.467	248
811.044	284
820.608	332
830.16	880
839.699	500
849.226	318
858.741	322
868.243	284
877.731	250
887.209	266
896.674	244
906.128	246
915.569	248
924.997	238
934.414	254
943.818	324
953.211	614
962.59	948
971.958	506
981.314	304
990.659	286
999.99	254
1009.31	270
1018.62	312
1027.91	336
1037.2	358
1046.47	292
1055.73	274
1064.98	278
1074.22	274
1083.44	280
1092.65	256
1101.86	298
1111.05	926
1120.22	452
1129.39	308
1138.54	310
1147.69	290
1156.82	310
1165.94	352
1175.05	332
1184.14	640
1193.23	526
1202.3	542
1211.36	374
1220.41	314
1229.45	426
1238.48	324
1247.5	282
1256.5	324
1265.49	324
1274.48	318
1283.45	422
1292.41	586
1301.36	1662
1310.29	1404
1319.22	626
1328.13	542
1337.04	394
1345.93	414
1354.81	444
1363.68	384
1372.54	614
1381.38	1164
1390.22	442
1399.05	356
1407.86	332
1416.66	386
1425.46	474
1434.24	552
1443.01	584
1451.77	462
1460.52	474
1469.25	412
1477.98	436
1486.7	378
1495.4	354
1504.1	368
1512.78	338
1521.45	348
1530.11	332
1538.76	358
1547.41	340
1556.03	362
1564.65	370
1573.26	448
1581.86	534
1590.45	858
1599.02	1488
1607.59	1326
1616.14	826
1624.69	466
1633.22	350
1641.75	342
1650.26	332
1658.76	298
1667.26	286
1675.74	288
1684.21	316
1692.67	306
1701.12	334
1709.56	314
1717.99	306
1726.41	300
1734.82	276
1743.22	280
1751.61	304
1759.99	298
1768.36	266
1776.71	272
1785.06	280
1793.4	298
1801.73	248
1810.04	280
1818.35	264
1826.65	266
1834.94	278
1843.21	276
1851.48	284
1859.74	270
1867.98	290
1876.22	280
1884.45	268
1892.67	280
1900.87	284
1909.07	286
1917.26	294
1925.43	280
1933.6	280
1941.76	270
1949.91	292
1958.05	264
1966.17	272
1974.29	278
1982.4	310
1990.5	270
1998.59	278
2006.67	258
2014.74	256
2022.8	282
2030.85	272
2038.89	270
2046.92	262
2054.94	262
2062.95	260
2070.96	268
2078.95	270
2086.93	264
2094.91	278
2102.87	264
2110.83	266
2118.77	256
2126.71	250
2134.63	264
2142.55	268
2150.46	256
2158.35	252
2166.24	242
2174.12	270
2181.99	268
2189.85	258
2197.7	260
2205.55	256
2213.38	272
2221.2	236
2229.02	256
2236.82	262
2244.62	264
2252.4	280
2260.18	262
2267.95	236
2275.71	254
2283.46	234
2291.2	244
2298.93	252
2306.65	272
2314.37	254
2322.07	266
2329.77	270
2337.45	258
2345.13	268
2352.8	252
2360.46	262
2368.11	258
2375.75	256
2383.38	244
2391.01	272
2398.62	282
2406.23	270
2413.82	280
2421.41	248
2428.99	256
2436.56	252
2444.12	256
2449.79	254

File: ps-ppo-7jan25-0,0000-map2_Y00_X02.txt
182.393	756
192.79	662
203.174	560
213.542	500
223.897	670
234.238	1342
244.566	922
254.878	518
265.178	358
275.463	306
285.734	420
295.992	692
306.236	532
316.467	404
326.684	418
336.887	434
347.075	380
357.251	380
367.413	368
377.562	364
387.697	274
397.819	290
407.926	318
418.02	400
428.101	268
438.169	230
448.223	218
458.264	216
468.291	278
478.306	446
488.307	500
498.294	266
508.269	296
518.23	330
528.177	458
538.113	836
548.034	514
557.942	544
567.838	2816
577.72	1598
587.589	650
597.446	486
607.289	284
617.119	258
626.936	300
636.741	366
646.533	304
656.313	242
666.078	202
675.831	206
685.571	202
695.299	220
705.014	220
714.716	282
724.406	258
734.082	246
743.746	306
753.398	350
763.037	244
772.664	240
782.278	254
791.879	224
801.467	234
811.044	242
820.608	266
830.16	854
839.699	456
849.226	320
858.741	284
868.243	266
877.731	224
887.209	222
896.674	222
906.128	222
915.569	218
924.997	230
934.414	258
943.818	274
953.211	592
962.59	926
971.958	502
981.314	278
990.659	278
999.99	258
1009.31	240
1018.62	290
1027.91	298
1037.2	330
1046.47	290
1055.73	258
1064.98	224
1074.22	232
1083.44	242
1092.65	258
1101.86	302
1111.05	888
1120.22	410
1129.39	300
1138.54	290
1147.69	270
1156.82	312
1165.94	328
1175.05	320
1184.14	638
1193.23	518
1202.3	556
1211.36	352
1220.41	282
1229.45	396
1238.48	304
1247.5	270
1256.5	268
1265.49	292
1274.48	312
1283.45	416
1292.41	552
1301.36	1652
1310.29	1386
1319.22	624
1328.13	524
1337.04	388
1345.93	416
1354.81	426
1363.68	372
1372.54	592
1381.38	1100
1390.22	440
1399.05	306
1407.86	312
1416.66	360
1425.46	474
1434.24	502
1443.01	542
1451.77	434
1460.52	418
1469.25	418
1477.98	412
1486.7	348
1495.4	340
1504.1	320
1512.78	320
1521.45	340
1530.11	324
1538.76	330
1547.41	336
1556.03	312
1564.65	356
1573.26	384
1581.86	510
1590.45	832
1599.02	1450
1607.59	1364
1616.14	776
1624.69	458
1633.22	338
1641.75	312
1650.26	286
1658.76	298
1667.26	270
1675.74	280
1684.21	286
1692.67	286
1701.12	272
1709.56	250
1717.99	260
1726.41	270
1734.82	246
1743.22	256
1751.61	272
1759.99	254
1768.36	234
1776.71	258
1785.06	250
1793.4	258
1801.73	278
1810.04	254
1818.35	258
1826.65	268
1834.94	248
1843.21	252
1851.48	250
1859.74	244
1867.98	248
1876.22	252
1884.45	250
1892.67	268
1900.87	264
1909.07	238
1917.26	258
1925.43	260
1933.6	256
1941.76	258
1949.91	254
1958.05	256
1966.17	252
1974.29	238
1982.4	236
1990.5	244
1998.59	270
2006.67	250
2014.74	254
2022.8	248
2030.85	242
2038.89	226
2046.92	228
2054.94	240
2062.95	258
2070.96	238
2078.95	246
2086.93	240
2094.91	236
2102.87	260
2110.83	236
2118.77	230
2126.71	254
2134.63	232
2142.55	226
2150.46	244
2158.35	236
2166.24	250
2174.12	246
2181.99	240
2189.85	246
2197.7	232
2205.55	224
2213.38	226
2221.2	232
2229.02	278
2236.82	230
2244.62	230
2252.4	240
2260.18	236
2267.95	244
2275.71	256
2283.46	256
2291.2	262
2298.93	250
2306.65	226
2314.37	244
2322.07	246
2329.77	244
2337.45	254
2345.13	244
2352.8	228
2360.46	218
2368.11	236
2375.75	246
2383.38	246
2391.01	238
2398.62	252
2406.23	256
2413.82	236
2421.41	248
2428.99	228
2436.56	238
2444.12	234
2449.79	226

File: ps-ppo-7jan25-0,0000-map2_Y00_X04.txt
182.393	748
192.79	664
203.174	566
213.542	490
223.897	648
234.238	1384
244.566	936
254.878	504
265.178	330
275.463	328
285.734	418
295.992	656
306.236	492
316.467	414
326.684	402
336.887	416
347.075	372
357.251	394
367.413	336
377.562	348
387.697	280
397.819	256
407.926	296
418.02	376
428.101	242
438.169	212
448.223	206
458.264	210
468.291	274
478.306	420
488.307	484
498.294	278
508.269	292
518.23	352
528.177	446
538.113	844
548.034	462
557.942	542
567.838	2786
577.72	1526
587.589	662
597.446	494
607.289	294
617.119	254
626.936	322
636.741	356
646.533	280
656.313	262
666.078	214
675.831	202
685.571	186
695.299	210
705.014	206
714.716	282
724.406	252
734.082	250
743.746	334
753.398	322
763.037	228
772.664	214
782.278	252
791.879	246
801.467	238
811.044	244
820.608	272
830.16	856
839.699	432
849.226	276
858.741	278
868.243	232
877.731	232
887.209	226
896.674	204
906.128	212
915.569	222
924.997	224
934.414	246
943.818	318
953.211	588
962.59	928
971.958	510
981.314	298
990.659	282
999.99	242
1009.31	234
1018.62	254
1027.91	278
1037.2	304
1046.47	294
1055.73	246
1064.98	236
1074.22	242
1083.44	258
1092.65	252
1101.86	290
1111.05	870
1120.22	430
1129.39	318
1138.54	288
1147.69	280
1156.82	290
1165.94	276
1175.05	320
1184.14	620
1193.23	480
1202.3	506
1211.36	338
1220.41	290
1229.45	400
1238.48	292
1247.5	268
1256.5	278
1265.49	304
1274.48	300
1283.45	402
1292.41	516
1301.36	1624
1310.29	1374
1319.22	584
1328.13	526
1337.04	408
1345.93	404
1354.81	396
1363.68	354
1372.54	600
1381.38	1102
1390.22	432
1399.05	318
1407.86	340
1416.66	362
1425.46	488
1434.24	498
1443.01	554
1451.77	436
1460.52	416
1469.25	418
1477.98	398
1486.7	358
1495.4	318
1504.1	316
1512.78	326
1521.45	312
1530.11	324
1538.76	334
1547.41	322
1556.03	348
1564.65	346
1573.26	388
1581.86	480
1590.45	830
1599.02	1440
1607.59	1356
1616.14	774
1624.69	444
1633.22	354
1641.75	300
1650.26	298
1658.76	262
1667.26	272
1675.74	276
1684.21	296
1692.67	276
1701.12	286
1709.56	276
1717.99	278
1726.41	292
1734.82	266
1743.22	240
1751.61	258
1759.99	234
1768.36	270
1776.71	248
1785.06	262
1793.4	254
1801.73	248
1810.04	254
1818.35	260
1826.65	252
1834.94	250
1843.21	270
1851.48	252
1859.74	272
1867.98	258
1876.22	236
1884.45	266
1892.67	260
1900.87	244
1909.07	262
1917.26	262
1925.43	274
1933.6	252
1941.76	248
1949.91	270
1958.05	264
1966.17	258
1974.29	242
1982.4	258
1990.5	252
1998.59	258
2006.67	250
2014.74	276
2022.8	248
2030.85	242
2038.89	262
2046.92	260
2054.94	238
2062.95	236
2070.96	250
2078.95	238
2086.93	262
2094.91	264
2102.87	246
2110.83	250
2118.77	248
2126.71	266
2134.63	266
2142.55	246
2150.46	240
2158.35	252
2166.24	250
2174.12	236
2181.99	252
2189.85	244
2197.7	240
2205.55	248
2213.38	222
2221.2	246
2229.02	262
2236.82	244
2244.62	248
2252.4	248
2260.18	242
2267.95	244
2275.71	252
2283.46	238
2291.2	242
2298.93	254
2306.65	240
2314.37	270
2322.07	268
2329.77	258
2337.45	256
2345.13	244
2352.8	250
2360.46	236
2368.11	242
2375.75	238
2383.38	268
2391.01	250
2398.62	268
2406.23	256
2413.82	228
2421.41	250
2428.99	242
2436.56	246
2444.12	244
2449.79	238

File: ps-ppo-7jan25-0,0000-map2_Y00_X05.txt
182.393	746
192.79	650
203.174	536
213.542	474
223.897	642
234.238	1288
244.566	896
254.878	492
265.178	346
275.463	304
285.734	396
295.992	652
306.236	524
316.467	396
326.684	412
336.887	438
347.075	372
357.251	416
367.413	366
377.562	370
387.697	292
397.819	254
407.926	320
418.02	402
428.101	278
438.169	224
448.223	214
458.264	232
468.291	274
478.306	418
488.307	510
498.294	270
508.269	318
518.23	370
528.177	436
538.113	830
548.034	506
557.942	558
567.838	2772
577.72	1586
587.589	630
597.446	478
607.289	276
617.119	252
626.936	304
636.741	360
646.533	288
656.313	228
666.078	234
675.831	204
685.571	234
695.299	212
705.014	218
714.716	304
724.406	234
734.082	250
743.746	324
753.398	356
763.037	266
772.664	232
782.278	252
791.879	224
801.467	224
811.044	248
820.608	290
830.16	840
839.699	442
849.226	318
858.741	284
868.243	258
877.731	236
887.209	206
896.674	226
906.128	226
915.569	218
924.997	222
934.414	238
943.818	294
953.211	576
962.59	936
971.958	470
981.314	278
990.659	276
999.99	274
1009.31	250
1018.62	276
1027.91	304
1037.2	308
1046.47	264
1055.73	250
1064.98	256
1074.22	228
1083.44	260
1092.65	272
1101.86	300
1111.05	898
1120.22	438
1129.39	326
1138.54	304
1147.69	262
1156.82	282
1165.94	318
1175.05	346
1184.14	618
1193.23	490
1202.3	554
1211.36	360
1220.41	314
1229.45	416
1238.48	302
1247.5	286
1256.5	266
1265.49	294
1274.48	326
1283.45	404
1292.41	526
1301.36	1668
1310.29	1360
1319.22	602
1328.13	516
1337.04	402
1345.93	418
1354.81	406
1363.68	356
1372.54	592
1381.38	1102
1390.22	436
1399.05	342
1407.86	336
1416.66	374
1425.46	436
1434.24	542
1443.01	558
1451.77	466
1460.52	444
1469.25	402
1477.98	400
1486.7	364
1495.4	364
1504.1	340
1512.78	318
1521.45	326
1530.11	332
1538.76	330
1547.41	338
1556.03	350
1564.65	350
1573.26	400
1581.86	516
1590.45	850
1599.02	1440
1607.59	1360
1616.14	780
1624.69	440
1633.22	358
1641.75	318
1650.26	286
1658.76	266
1667.26	288
1675.74	288
1684.21	256
1692.67	306
1701.12	310
1709.56	288
1717.99	268
1726.41	280
1734.82	280
1743.22	282
1751.61	268
1759.99	256
1768.36	238
1776.71	256
1785.06	262
1793.4	266
1801.73	266
1810.04	264
1818.35	260
1826.65	240
1834.94	238
1843.21	256
1851.48	250
1859.74	236
1867.98	252
1876.22	268
1884.45	264
1892.67	254
1900.87	274
1909.07	254
1917.26	280
1925.43	250
1933.6	254
1941.76	278
1949.91	240
1958.05	254
1966.17	244
1974.29	250
1982.4	258
1990.5	270
1998.59	268
2006.67	244
2014.74	254
2022.8	254
2030.85	244
2038.89	248
2046.92	252
2054.94	258
2062.95	248
2070.96	264
2078.95	250
2086.93	272
2094.91	262
2102.87	258
2110.83	264
2118.77	250
2126.71	248
2134.63	234
2142.55	262
2150.46	252
2158.35	262
2166.24	250
2174.12	248
2181.99	246
2189.85	248
2197.7	248
2205.55	238
2213.38	246
2221.2	240
2229.02	242
2236.82	264
2244.62	254
2252.4	268
2260.18	260
2267.95	256
2275.71	252
2283.46	244
2291.2	250
2298.93	258
2306.65	238
2314.37	268
2322.07	252
2329.77	248
2337.45	260
2345.13	238
2352.8	248
2360.46	256
2368.11	232
2375.75	252
2383.38	268
2391.01	270
2398.62	260
2406.23	260
2413.82	256
2421.41	266
2428.99	256
2436.56	242
2444.12	240
2449.79	234

File: ps-ppo-7jan25-0,0000-map2_Y00_X06.txt
182.393	774
192.79	650
203.174	532
213.542	520
223.897	644
234.238	1320
244.566	902
254.878	480
265.178	338
275.463	330
285.734	410
295.992	668
306.236	508
316.467	414
326.684	448
336.887	432
347.075	404
357.251	402
367.413	368
377.562	390
387.697	282
397.819	294
407.926	340
418.02	390
428.101	280
438.169	220
448.223	226
458.264	214
468.291	274
478.306	444
488.307	488
498.294	288
508.269	314
518.23	350
528.177	438
538.113	828
548.034	490
557.942	580
567.838	2846
577.72	1582
587.589	660
597.446	518
607.289	294
617.119	258
626.936	328
636.741	370
646.533	282
656.313	260
666.078	216
675.831	238
685.571	222
695.299	224
705.014	248
714.716	282
724.406	252
734.082	272
743.746	312
753.398	344
763.037	270
772.664	266
782.278	274
791.879	238
801.467	246
811.044	262
820.608	296
830.16	858
839.699	464
849.226	322
858.741	294
868.243	232
877.731	250
887.209	244
896.674	236
906.128	240
915.569	226
924.997	226
934.414	256
943.818	292
953.211	604
962.59	932
971.958	510
981.314	304
990.659	296
999.99	252
1009.31	260
1018.62	286
1027.91	312
1037.2	340
1046.47	322
1055.73	264
1064.98	280
1074.22	248
1083.44	260
1092.65	272
1101.86	318
1111.05	906
1120.22	448
1129.39	314
1138.54	316
1147.69	266
1156.82	302
1165.94	318
1175.05	348
1184.14	632
1193.23	516
1202.3	540
1211.36	354
1220.41	294
1229.45	412
1238.48	310
1247.5	302
1256.5	296
1265.49	290
1274.48	340
1283.45	416
1292.41	548
1301.36	1648
1310.29	1378
1319.22	588
1328.13	548
1337.04	394
1345.93	422
1354.81	434
1363.68	382
1372.54	596
1381.38	1130
1390.22	438
1399.05	348
1407.86	368
1416.66	366
1425.46	500
1434.24	504
1443.01	556
1451.77	468
1460.52	434
1469.25	454
1477.98	434
1486.7	370
1495.4	358
1504.1	342
1512.78	334
1521.45	332
1530.11	326
1538.76	328
1547.41	354
1556.03	350
1564.65	384
1573.26	434
1581.86	522
1590.45	852
1599.02	1440
1607.59	1408
1616.14	788
1624.69	468
1633.22	350
1641.75	310
1650.26	304
1658.76	304
1667.26	306
1675.74	284
1684.21	296
1692.67	312
1701.12	308
1709.56	274
1717.99	298
1726.41	280
1734.82	268
1743.22	274
1751.61	284
1759.99	266
1768.36	260
1776.71	276
1785.06	276
1793.4	270
1801.73	270
1810.04	266
1818.35	278
1826.65	254
1834.94	266
1843.21	272
1851.48	270
1859.74	276
1867.98	254
1876.22	262
1884.45	276
1892.67	258
1900.87	270
1909.07	268
1917.26	264
1925.43	262
1933.6	272
1941.76	270
1949.91	266
1958.05	280
1966.17	250
1974.29	254
1982.4	280
1990.5	272
1998.59	262
2006.67	270
2014.74	258
2022.8	252
2030.85	266
2038.89	272
2046.92	264
2054.94	274
2062.95	270
2070.96	258
2078.95	278
2086.93	268
2094.91	260
2102.87	244
2110.83	256
2118.77	268
2126.71	240
2134.63	260
2142.55	258
2150.46	250
2158.35	278
2166.24	256
2174.12	258
2181.99	258
2189.85	258
2197.7	248
2205.55	266
2213.38	276
2221.2	266
2229.02	258
2236.82	264
2244.62	250
2252.4	262
2260.18	258
2267.95	254
2275.71	254
2283.46	264
2291.2	254
2298.93	252
2306.65	278
2314.37	258
2322.07	262
2329.77	262
2337.45	278
2345.13	250
2352.8	258
2360.46	254
2368.11	264
2375.75	254
2383.38	264
2391.01	262
2398.62	268
2406.23	272
2413.82	252
2421.41	272
2428.99	262
2436.56	238
2444.12	260
2449.79	262

File: ps-ppo-7jan25-0,0000-map2_Y00_X08.txt
182.393	704
192.79	636
203.174	568
213.542	502
223.897	634
234.238	1328
244.566	906
254.878	492
265.178	358
275.463	324
285.734	420
295.992	680
306.236	458
316.467	404
326.684	392
336.887	430
347.075	380
357.251	406
367.413	356
377.562	364
387.697	280
397.819	276
407.926	328
418.02	386
428.101	286
438.169	220
448.223	196
458.264	204
468.291	276
478.306	454
488.307	514
498.294	288
508.269	304
518.23	366
528.177	444
538.113	824
548.034	516
557.942	574
567.838	2820
577.72	1608
587.589	654
597.446	462
607.289	284
617.119	272
626.936	304
636.741	370
646.533	296
656.313	254
666.078	226
675.831	196
685.571	214
695.299	216
705.014	238
714.716	298
724.406	230
734.082	256
743.746	314
753.398	336
763.037	256
772.664	242
782.278	282
791.879	250
801.467	230
811.044	258
820.608	296
830.16	888
839.699	448
849.226	300
858.741	276
868.243	258
877.731	250
887.209	228
896.674	218
906.128	244
915.569	228
924.997	216
934.414	248
943.818	296
953.211	612
962.59	952
971.958	520
981.314	282
990.659	274
999.99	260
1009.31	250
1018.62	294
1027.91	294
1037.2	348
1046.47	276
1055.73	256
1064.98	234
1074.22	248
1083.44	240
1092.65	258
1101.86	304
1111.05	880
1120.22	426
1129.39	296
1138.54	298
1147.69	268
1156.82	292
1165.94	312
1175.05	296
1184.14	598
1193.23	490
1202.3	514
1211.36	358
1220.41	296
1229.45	406
1238.48	296
1247.5	284
1256.5	280
1265.49	276
1274.48	304
1283.45	418
1292.41	558
1301.36	1596
1310.29	1360
1319.22	612
1328.13	516
1337.04	384
1345.93	402
1354.81	386
1363.68	368
1372.54	608
1381.38	1100
1390.22	456
1399.05	340
1407.86	338
1416.66	378
1425.46	434
1434.24	502
1443.01	538
1451.77	444
1460.52	436
1469.25	416
1477.98	400
1486.7	352
1495.4	322
1504.1	320
1512.78	318
1521.45	326
1530.11	316
1538.76	308
1547.41	340
1556.03	344
1564.65	350
1573.26	402
1581.86	528
1590.45	810
1599.02	1412
1607.59	1326
1616.14	798
1624.69	462
1633.22	332
1641.75	316
1650.26	290
1658.76	282
1667.26	272
1675.74	274
1684.21	308
1692.67	294
1701.12	282
1709.56	284
1717.99	262
1726.41	284
1734.82	266
1743.22	262
1751.61	252
1759.99	264
1768.36	248
1776.71	272
1785.06	244
1793.4	252
1801.73	254
1810.04	254
1818.35	248
1826.65	234
1834.94	262
1843.21	256
1851.48	250
1859.74	266
1867.98	240
1876.22	264
1884.45	252
1892.67	242
1900.87	260
1909.07	260
1917.26	252
1925.43	262
1933.6	264
1941.76	256
1949.91	272
1958.05	250
1966.17	262
1974.29	268
1982.4	260
1990.5	264
1998.59	250
2006.67	254
2014.74	264
2022.8	258
2030.85	252
2038.89	242
2046.92	276
2054.94	254
2062.95	262
2070.96	240
2078.95	254
2086.93	246
2094.91	248
2102.87	248
2110.83	252
2118.77	236
2126.71	246
2134.63	244
2142.55	248
2150.46	242
2158.35	236
2166.24	264
2174.12	236
2181.99	230
2189.85	250
2197.7	240
2205.55	238
2213.38	248
2221.2	262
2229.02	230
2236.82	234
2244.62	228
2252.4	250
2260.18	220
2267.95	262
2275.71	230
2283.46	222
2291.2	238
2298.93	244
2306.65	270
2314.37	262
2322.07	252
2329.77	258
2337.45	274
2345.13	250
2352.8	228
2360.46	268
2368.11	244
2375.75	256
2383.38	230
2391.01	224
2398.62	254
2406.23	262
2413.82	256
2421.41	232
2428.99	242
2436.56	232
2444.12	244
2449.79	248

File: ps-ppo-7jan25-0,0000-map2_Y01_X01.txt
182.393	714
192.79	642
203.174	522
213.542	470
223.897	628
234.238	1340
244.566	912
254.878	464
265.178	324
275.463	296
285.734	408
295.992	676
306.236	514
316.467	384
326.684	396
336.887	418
347.075	378
357.251	380
367.413	342
377.562	312
387.697	262
397.819	264
407.926	308
418.02	366
428.101	254
438.169	182
448.223	186
458.264	198
468.291	272
478.306	424
488.307	464
498.294	260
508.269	288
518.23	350
528.177	402
538.113	836
548.034	486
557.942	552
567.838	2798
577.72	1596
587.589	658
597.446	480
607.289	284
617.119	228
626.936	304
636.741	346
646.533	284
656.313	224
666.078	216
675.831	172
685.571	200
695.299	182
705.014	198
714.716	268
724.406	222
734.082	236
743.746	304
753.398	320
763.037	228
772.664	228
782.278	240
791.879	218
801.467	222
811.044	216
820.608	270
830.16	850
839.699	442
849.226	292
858.741	268
868.243	216
877.731	202
887.209	200
896.674	206
906.128	202
915.569	202
924.997	202
934.414	236
943.818	260
953.211	592
962.59	892
971.958	460
981.314	286
990.659	244
999.99	236
1009.31	236
1018.62	256
1027.91	312
1037.2	308
1046.47	268
1055.73	232
1064.98	220
1074.22	226
1083.44	226
1092.65	228
1101.86	282
1111.05	860
1120.22	402
1129.39	286
1138.54	276
1147.69	278
1156.82	266
1165.94	316
1175.05	296
1184.14	612
1193.23	492
1202.3	500
1211.36	326
1220.41	256
1229.45	372
1238.48	278
1247.5	248
1256.5	240
1265.49	280
1274.48	302
1283.45	394
1292.41	482
1301.36	1646
1310.29	1374
1319.22	578
1328.13	500
1337.04	370
1345.93	380
1354.81	376
1363.68	316
1372.54	572
1381.38	1078
1390.22	424
1399.05	302
1407.86	290
1416.66	360
1425.46	432
1434.24	464
1443.01	564
1451.77	450
1460.52	402
1469.25	394
1477.98	364
1486.7	328
1495.4	308
1504.1	290
1512.78	306
1521.45	306
1530.11	312
1538.76	308
1547.41	314
1556.03	310
1564.65	324
1573.26	344
1581.86	516
1590.45	792
1599.02	1418
1607.59	1302
1616.14	760
1624.69	418
1633.22	308
1641.75	294
1650.26	266
1658.76	262
1667.26	248
1675.74	242
1684.21	240
1692.67	268
1701.12	266
1709.56	252
1717.99	236
1726.41	232
1734.82	224
1743.22	246
1751.61	228
1759.99	222
1768.36	232
1776.71	218
1785.06	220
1793.4	228
1801.73	212
1810.04	210
1818.35	208
1826.65	230
1834.94	244
1843.21	218
1851.48	240
1859.74	240
1867.98	212
1876.22	248
1884.45	242
1892.67	230
1900.87	222
1909.07	240
1917.26	250
1925.43	232
1933.6	222
1941.76	212
1949.91	214
1958.05	220
1966.17	232
1974.29	230
1982.4	230
1990.5	230
1998.59	246
2006.67	224
2014.74	212
2022.8	216
2030.85	212
2038.89	232
2046.92	222
2054.94	220
2062.95	228
2070.96	230
2078.95	254
2086.93	220
2094.91	240
2102.87	210
2110.83	232
2118.77	226
2126.71	224
2134.63	232
2142.55	222
2150.46	216
2158.35	226
2166.24	226
2174.12	222
2181.99	210
2189.85	220
2197.7	220
2205.55	214
2213.38	210
2221.2	218
2229.02	210
2236.82	216
2244.62	230
2252.4	218
2260.18	224
2267.95	242
2275.71	224
2283.46	232
2291.2	234
2298.93	216
2306.65	210
2314.37	228
2322.07	212
2329.77	226
2337.45	238
2345.13	214
2352.8	236
2360.46	214
2368.11	204
2375.75	232
2383.38	218
2391.01	250
2398.62	234
2406.23	230
2413.82	222
2421.41	228
2428.99	220
2436.56	208
2444.12	228
2449.79	208