Folder: NRC_SU25_Spectral_Classification/Mixture_Classification/Jesse_Dataset_v2/Pure Raman/Polypropylene oxide/633nm (part 9)

File: ps-ppo-7jan25-0,0000-map2_Y09_X09.txt
182.393	686
192.79	590
203.174	520
213.542	444
223.897	598
234.238	1232
244.566	858
254.878	470
265.178	328
275.463	306
285.734	400
295.992	622
306.236	466
316.467	370
326.684	400
336.887	422
347.075	352
357.251	358
367.413	336
377.562	322
387.697	246
397.819	246
407.926	282
418.02	342
428.101	254
438.169	190
448.223	186
458.264	178
468.291	266
478.306	398
488.307	442
498.294	272
508.269	252
518.23	304
528.177	370
538.113	756
548.034	458
557.942	528
567.838	2496
577.72	1538
587.589	586
597.446	474
607.289	248
617.119	222
626.936	266
636.741	320
646.533	244
656.313	226
666.078	192
675.831	186
685.571	172
695.299	194
705.014	194
714.716	258
724.406	200
734.082	216
743.746	298
753.398	290
763.037	214
772.664	192
782.278	218
791.879	206
801.467	186
811.044	210
820.608	258
830.16	744
839.699	376
849.226	266
858.741	242
868.243	212
877.731	196
887.209	190
896.674	194
906.128	192
915.569	188
924.997	208
934.414	216
943.818	264
953.211	536
962.59	874
971.958	460
981.314	262
990.659	242
999.99	208
1009.31	186
1018.62	254
1027.91	256
1037.2	302
1046.47	252
1055.73	218
1064.98	206
1074.22	206
1083.44	206
1092.65	200
1101.86	240
1111.05	792
1120.22	374
1129.39	256
1138.54	254
1147.69	234
1156.82	252
1165.94	260
1175.05	286
1184.14	550
1193.23	448
1202.3	470
1211.36	324
1220.41	242
1229.45	352
1238.48	264
1247.5	232
1256.5	224
1265.49	256
1274.48	258
1283.45	370
1292.41	486
1301.36	1510
1310.29	1296
1319.22	568
1328.13	464
1337.04	336
1345.93	370
1354.81	342
1363.68	312
1372.54	536
1381.38	992
1390.22	386
1399.05	310
1407.86	298
1416.66	352
1425.46	422
1434.24	444
1443.01	506
1451.77	398
1460.52	404
1469.25	358
1477.98	382
1486.7	312
1495.4	288
1504.1	296
1512.78	276
1521.45	272
1530.11	276
1538.76	252
1547.41	284
1556.03	298
1564.65	316
1573.26	346
1581.86	448
1590.45	726
1599.02	1322
1607.59	1276
1616.14	718
1624.69	410
1633.22	296
1641.75	278
1650.26	240
1658.76	252
1667.26	240
1675.74	248
1684.21	236
1692.67	254
1701.12	246
1709.56	260
1717.99	232
1726.41	226
1734.82	216
1743.22	208
1751.61	216
1759.99	226
1768.36	226
1776.71	212
1785.06	208
1793.4	222
1801.73	216
1810.04	212
1818.35	228
1826.65	218
1834.94	212
1843.21	208
1851.48	208
1859.74	208
1867.98	224
1876.22	222
1884.45	216
1892.67	218
1900.87	228
1909.07	216
1917.26	218
1925.43	230
1933.6	206
1941.76	216
1949.91	212
1958.05	216
1966.17	220
1974.29	218
1982.4	198
1990.5	214
1998.59	218
2006.67	218
2014.74	218
2022.8	222
2030.85	224
2038.89	200
2046.92	218
2054.94	212
2062.95	226
2070.96	240
2078.95	216
2086.93	208
2094.91	218
2102.87	210
2110.83	220
2118.77	218
2126.71	216
2134.63	222
2142.55	220
2150.46	210
2158.35	226
2166.24	220
2174.12	220
2181.99	200
2189.85	228
2197.7	206
2205.55	208
2213.38	242
2221.2	208
2229.02	210
2236.82	204
2244.62	218
2252.4	212
2260.18	228
2267.95	228
2275.71	208
2283.46	216
2291.2	224
2298.93	222
2306.65	208
2314.37	218
2322.07	234
2329.77	240
2337.45	228
2345.13	206
2352.8	214
2360.46	212
2368.11	216
2375.75	220
2383.38	232
2391.01	230
2398.62	222
2406.23	222
2413.82	206
2421.41	216
2428.99	208
2436.56	228
2444.12	212
2449.79	244

File: ps-ppo-7jan25-0,0000-map2_Y09_X10.txt
182.393	650
192.79	572
203.174	484
213.542	428
223.897	572
234.238	1130
244.566	824
254.878	426
265.178	322
275.463	286
285.734	348
295.992	578
306.236	430
316.467	350
326.684	354
336.887	404
347.075	334
357.251	338
367.413	332
377.562	316
387.697	254
397.819	246
407.926	280
418.02	344
428.101	238
438.169	180
448.223	202
458.264	198
468.291	244
478.306	392
488.307	422
498.294	248
508.269	250
518.23	302
528.177	398
538.113	714
548.034	438
557.942	472
567.838	2396
577.72	1480
587.589	580
597.446	432
607.289	244
617.119	228
626.936	278
636.741	312
646.533	244
656.313	220
666.078	180
675.831	186
685.571	192
695.299	190
705.014	204
714.716	270
724.406	230
734.082	208
743.746	286
753.398	312
763.037	222
772.664	238
782.278	240
791.879	210
801.467	230
811.044	212
820.608	264
830.16	724
839.699	412
849.226	274
858.741	252
868.243	228
877.731	204
887.209	206
896.674	216
906.128	190
915.569	194
924.997	214
934.414	214
943.818	270
953.211	526
962.59	858
971.958	446
981.314	258
990.659	246
999.99	232
1009.31	234
1018.62	248
1027.91	274
1037.2	270
1046.47	254
1055.73	202
1064.98	220
1074.22	212
1083.44	230
1092.65	232
1101.86	250
1111.05	748
1120.22	394
1129.39	264
1138.54	262
1147.69	236
1156.82	252
1165.94	272
1175.05	302
1184.14	560
1193.23	432
1202.3	466
1211.36	322
1220.41	268
1229.45	374
1238.48	278
1247.5	252
1256.5	248
1265.49	258
1274.48	268
1283.45	374
1292.41	478
1301.36	1432
1310.29	1250
1319.22	560
1328.13	460
1337.04	356
1345.93	394
1354.81	392
1363.68	310
1372.54	516
1381.38	990
1390.22	390
1399.05	268
1407.86	296
1416.66	324
1425.46	444
1434.24	464
1443.01	488
1451.77	416
1460.52	396
1469.25	384
1477.98	370
1486.7	304
1495.4	308
1504.1	308
1512.78	282
1521.45	290
1530.11	302
1538.76	282
1547.41	304
1556.03	282
1564.65	308
1573.26	352
1581.86	454
1590.45	754
1599.02	1344
1607.59	1232
1616.14	708
1624.69	412
1633.22	320
1641.75	270
1650.26	270
1658.76	264
1667.26	264
1675.74	238
1684.21	266
1692.67	264
1701.12	266
1709.56	254
1717.99	240
1726.41	234
1734.82	234
1743.22	224
1751.61	244
1759.99	232
1768.36	238
1776.71	220
1785.06	244
1793.4	238
1801.73	230
1810.04	242
1818.35	228
1826.65	222
1834.94	238
1843.21	218
1851.48	232
1859.74	232
1867.98	230
1876.22	242
1884.45	224
1892.67	214
1900.87	228
1909.07	246
1917.26	244
1925.43	240
1933.6	246
1941.76	222
1949.91	208
1958.05	236
1966.17	228
1974.29	232
1982.4	232
1990.5	220
1998.59	216
2006.67	236
2014.74	232
2022.8	242
2030.85	226
2038.89	236
2046.92	216
2054.94	242
2062.95	202
2070.96	240
2078.95	218
2086.93	228
2094.91	198
2102.87	254
2110.83	214
2118.77	228
2126.71	236
2134.63	224
2142.55	222
2150.46	218
2158.35	218
2166.24	216
2174.12	210
2181.99	216
2189.85	242
2197.7	222
2205.55	210
2213.38	240
2221.2	222
2229.02	228
2236.82	232
2244.62	222
2252.4	234
2260.18	216
2267.95	230
2275.71	222
2283.46	228
2291.2	228
2298.93	228
2306.65	228
2314.37	228
2322.07	230
2329.77	236
2337.45	220
2345.13	224
2352.8	232
2360.46	230
2368.11	226
2375.75	232
2383.38	228
2391.01	234
2398.62	218
2406.23	220
2413.82	246
2421.41	242
2428.99	220
2436.56	222
2444.12	226
2449.79	216

File: ps-ppo-7jan25-0,0000-map2_Y10_X02.txt
182.393	690
192.79	578
203.174	466
213.542	432
223.897	590
234.238	1226
244.566	838
254.878	470
265.178	296
275.463	282
285.734	380
295.992	630
306.236	414
316.467	364
326.684	346
336.887	368
347.075	312
357.251	354
367.413	320
377.562	328
387.697	226
397.819	214
407.926	268
418.02	342
428.101	210
438.169	174
448.223	154
458.264	180
468.291	226
478.306	388
488.307	426
498.294	222
508.269	242
518.23	294
528.177	376
538.113	766
548.034	454
557.942	518
567.838	2610
577.72	1594
587.589	588
597.446	436
607.289	226
617.119	212
626.936	268
636.741	308
646.533	254
656.313	194
666.078	162
675.831	146
685.571	152
695.299	170
705.014	168
714.716	226
724.406	196
734.082	198
743.746	284
753.398	298
763.037	196
772.664	184
782.278	186
791.879	188
801.467	188
811.044	212
820.608	214
830.16	734
839.699	370
849.226	266
858.741	240
868.243	206
877.731	174
887.209	178
896.674	174
906.128	178
915.569	174
924.997	188
934.414	198
943.818	252
953.211	514
962.59	826
971.958	440
981.314	232
990.659	226
999.99	210
1009.31	212
1018.62	226
1027.91	262
1037.2	280
1046.47	234
1055.73	206
1064.98	206
1074.22	198
1083.44	206
1092.65	206
1101.86	248
1111.05	800
1120.22	374
1129.39	250
1138.54	242
1147.69	232
1156.82	246
1165.94	258
1175.05	266
1184.14	548
1193.23	456
1202.3	462
1211.36	318
1220.41	244
1229.45	362
1238.48	264
1247.5	228
1256.5	216
1265.49	268
1274.48	262
1283.45	336
1292.41	502
1301.36	1538
1310.29	1288
1319.22	528
1328.13	474
1337.04	350
1345.93	342
1354.81	366
1363.68	284
1372.54	520
1381.38	988
1390.22	400
1399.05	270
1407.86	272
1416.66	314
1425.46	404
1434.24	432
1443.01	506
1451.77	396
1460.52	382
1469.25	366
1477.98	372
1486.7	312
1495.4	296
1504.1	272
1512.78	280
1521.45	276
1530.11	256
1538.76	284
1547.41	288
1556.03	296
1564.65	310
1573.26	334
1581.86	452
1590.45	736
1599.02	1346
1607.59	1236
1616.14	730
1624.69	392
1633.22	304
1641.75	264
1650.26	254
1658.76	242
1667.26	230
1675.74	226
1684.21	250
1692.67	262
1701.12	236
1709.56	228
1717.99	254
1726.41	218
1734.82	236
1743.22	242
1751.61	216
1759.99	222
1768.36	214
1776.71	220
1785.06	208
1793.4	240
1801.73	224
1810.04	222
1818.35	204
1826.65	210
1834.94	200
1843.21	196
1851.48	202
1859.74	222
1867.98	206
1876.22	206
1884.45	218
1892.67	214
1900.87	212
1909.07	208
1917.26	218
1925.43	210
1933.6	234
1941.76	222
1949.91	210
1958.05	198
1966.17	220
1974.29	198
1982.4	202
1990.5	206
1998.59	216
2006.67	184
2014.74	206
2022.8	198
2030.85	222
2038.89	218
2046.92	212
2054.94	216
2062.95	198
2070.96	200
2078.95	228
2086.93	196
2094.91	204
2102.87	198
2110.83	228
2118.77	214
2126.71	198
2134.63	226
2142.55	214
2150.46	200
2158.35	216
2166.24	224
2174.12	208
2181.99	224
2189.85	210
2197.7	212
2205.55	192
2213.38	184
2221.2	200
2229.02	224
2236.82	206
2244.62	208
2252.4	204
2260.18	228
2267.95	212
2275.71	210
2283.46	206
2291.2	210
2298.93	198
2306.65	214
2314.37	216
2322.07	216
2329.77	218
2337.45	204
2345.13	216
2352.8	212
2360.46	198
2368.11	212
2375.75	216
2383.38	220
2391.01	222
2398.62	216
2406.23	238
2413.82	214
2421.41	218
2428.99	214
2436.56	214
2444.12	220
2449.79	204

File: ps-ppo-7jan25-0,0000-map2_Y10_X03.txt
182.393	694
192.79	592
203.174	504
213.542	440
223.897	576
234.238	1246
244.566	886
254.878	462
265.178	310
275.463	268
285.734	356
295.992	616
306.236	456
316.467	332
326.684	366
336.887	398
347.075	336
357.251	356
367.413	310
377.562	318
387.697	244
397.819	212
407.926	252
418.02	340
428.101	216
438.169	190
448.223	164
458.264	174
468.291	210
478.306	390
488.307	448
498.294	228
508.269	240
518.23	292
528.177	370
538.113	740
548.034	442
557.942	484
567.838	2476
577.72	1546
587.589	582
597.446	464
607.289	228
617.119	222
626.936	260
636.741	300
646.533	252
656.313	190
666.078	172
675.831	146
685.571	170
695.299	144
705.014	184
714.716	254
724.406	194
734.082	204
743.746	250
753.398	274
763.037	198
772.664	190
782.278	216
791.879	206
801.467	184
811.044	192
820.608	244
830.16	770
839.699	386
849.226	262
858.741	232
868.243	180
877.731	178
887.209	178
896.674	162
906.128	164
915.569	174
924.997	176
934.414	176
943.818	230
953.211	502
962.59	892
971.958	436
981.314	238
990.659	224
999.99	202
1009.31	190
1018.62	222
1027.91	252
1037.2	280
1046.47	218
1055.73	206
1064.98	176
1074.22	186
1083.44	196
1092.65	206
1101.86	224
1111.05	794
1120.22	386
1129.39	264
1138.54	236
1147.69	220
1156.82	222
1165.94	226
1175.05	290
1184.14	518
1193.23	434
1202.3	480
1211.36	294
1220.41	230
1229.45	352
1238.48	246
1247.5	226
1256.5	218
1265.49	236
1274.48	242
1283.45	354
1292.41	464
1301.36	1540
1310.29	1328
1319.22	560
1328.13	442
1337.04	338
1345.93	340
1354.81	344
1363.68	278
1372.54	504
1381.38	1030
1390.22	374
1399.05	260
1407.86	244
1416.66	294
1425.46	388
1434.24	440
1443.01	462
1451.77	396
1460.52	384
1469.25	342
1477.98	332
1486.7	296
1495.4	252
1504.1	264
1512.78	280
1521.45	254
1530.11	248
1538.76	242
1547.41	250
1556.03	272
1564.65	284
1573.26	336
1581.86	422
1590.45	722
1599.02	1320
1607.59	1280
1616.14	722
1624.69	400
1633.22	304
1641.75	232
1650.26	242
1658.76	226
1667.26	222
1675.74	234
1684.21	226
1692.67	226
1701.12	232
1709.56	234
1717.99	214
1726.41	204
1734.82	200
1743.22	204
1751.61	192
1759.99	204
1768.36	206
1776.71	216
1785.06	206
1793.4	218
1801.73	194
1810.04	192
1818.35	194
1826.65	208
1834.94	200
1843.21	192
1851.48	198
1859.74	208
1867.98	198
1876.22	194
1884.45	202
1892.67	188
1900.87	200
1909.07	196
1917.26	206
1925.43	198
1933.6	200
1941.76	208
1949.91	208
1958.05	196
1966.17	200
1974.29	200
1982.4	202
1990.5	228
1998.59	192
2006.67	204
2014.74	220
2022.8	204
2030.85	204
2038.89	194
2046.92	192
2054.94	210
2062.95	194
2070.96	208
2078.95	196
2086.93	198
2094.91	208
2102.87	198
2110.83	200
2118.77	206
2126.71	196
2134.63	194
2142.55	202
2150.46	192
2158.35	194
2166.24	198
2174.12	202
2181.99	200
2189.85	178
2197.7	202
2205.55	182
2213.38	202
2221.2	206
2229.02	200
2236.82	192
2244.62	204
2252.4	188
2260.18	202
2267.95	204
2275.71	220
2283.46	200
2291.2	222
2298.93	214
2306.65	202
2314.37	206
2322.07	218
2329.77	208
2337.45	200
2345.13	202
2352.8	202
2360.46	204
2368.11	196
2375.75	200
2383.38	212
2391.01	226
2398.62	204
2406.23	234
2413.82	212
2421.41	214
2428.99	190
2436.56	196
2444.12	190
2449.79	192

File: ps-ppo-7jan25-0,0000-map2_Y10_X04.txt
182.393	656
192.79	568
203.174	488
213.542	432
223.897	584
234.238	1228
244.566	840
254.878	478
265.178	304
275.463	262
285.734	386
295.992	612
306.236	460
316.467	348
326.684	356
336.887	406
347.075	338
357.251	338
367.413	304
377.562	306
387.697	240
397.819	214
407.926	262
418.02	330
428.101	244
438.169	194
448.223	166
458.264	174
468.291	226
478.306	378
488.307	438
498.294	224
508.269	246
518.23	312
528.177	378
538.113	748
548.034	448
557.942	472
567.838	2484
577.72	1554
587.589	570
597.446	442
607.289	228
617.119	202
626.936	266
636.741	308
646.533	248
656.313	212
666.078	152
675.831	170
685.571	182
695.299	142
705.014	170
714.716	234
724.406	202
734.082	206
743.746	272
753.398	308
763.037	202
772.664	202
782.278	218
791.879	192
801.467	200
811.044	204
820.608	236
830.16	752
839.699	390
849.226	248
858.741	244
868.243	192
877.731	200
887.209	196
896.674	166
906.128	182
915.569	172
924.997	174
934.414	180
943.818	254
953.211	534
962.59	890
971.958	460
981.314	254
990.659	222
999.99	184
1009.31	180
1018.62	200
1027.91	234
1037.2	282
1046.47	224
1055.73	192
1064.98	186
1074.22	200
1083.44	206
1092.65	208
1101.86	258
1111.05	784
1120.22	384
1129.39	238
1138.54	244
1147.69	220
1156.82	248
1165.94	274
1175.05	252
1184.14	528
1193.23	432
1202.3	448
1211.36	272
1220.41	220
1229.45	346
1238.48	234
1247.5	228
1256.5	218
1265.49	244
1274.48	248
1283.45	342
1292.41	488
1301.36	1514
1310.29	1304
1319.22	546
1328.13	464
1337.04	352
1345.93	362
1354.81	342
1363.68	324
1372.54	490
1381.38	990
1390.22	408
1399.05	256
1407.86	272
1416.66	296
1425.46	394
1434.24	460
1443.01	474
1451.77	402
1460.52	356
1469.25	364
1477.98	346
1486.7	308
1495.4	286
1504.1	266
1512.78	272
1521.45	260
1530.11	266
1538.76	256
1547.41	270
1556.03	290
1564.65	302
1573.26	340
1581.86	418
1590.45	750
1599.02	1356
1607.59	1260
1616.14	738
1624.69	382
1633.22	278
1641.75	258
1650.26	252
1658.76	248
1667.26	220
1675.74	234
1684.21	218
1692.67	248
1701.12	240
1709.56	226
1717.99	226
1726.41	208
1734.82	220
1743.22	222
1751.61	216
1759.99	206
1768.36	214
1776.71	218
1785.06	194
1793.4	224
1801.73	204
1810.04	200
1818.35	204
1826.65	204
1834.94	212
1843.21	220
1851.48	232
1859.74	228
1867.98	202
1876.22	214
1884.45	212
1892.67	216
1900.87	206
1909.07	198
1917.26	204
1925.43	216
1933.6	208
1941.76	210
1949.91	210
1958.05	200
1966.17	204
1974.29	202
1982.4	192
1990.5	192
1998.59	212
2006.67	206
2014.74	202
2022.8	214
2030.85	206
2038.89	204
2046.92	196
2054.94	212
2062.95	208
2070.96	198
2078.95	212
2086.93	194
2094.91	198
2102.87	204
2110.83	198
2118.77	194
2126.71	196
2134.63	206
2142.55	198
2150.46	214
2158.35	214
2166.24	216
2174.12	218
2181.99	212
2189.85	198
2197.7	222
2205.55	198
2213.38	214
2221.2	206
2229.02	202
2236.82	222
2244.62	200
2252.4	208
2260.18	220
2267.95	210
2275.71	208
2283.46	196
2291.2	204
2298.93	214
2306.65	192
2314.37	214
2322.07	212
2329.77	234
2337.45	214
2345.13	204
2352.8	190
2360.46	198
2368.11	210
2375.75	208
2383.38	218
2391.01	216
2398.62	210
2406.23	218
2413.82	210
2421.41	202
2428.99	204
2436.56	200
2444.12	192
2449.79	220

File: ps-ppo-7jan25-0,0000-map2_Y10_X07.txt
182.393	628
192.79	580
203.174	482
213.542	434
223.897	564
234.238	1194
244.566	864
254.878	468
265.178	310
275.463	254
285.734	372
295.992	584
306.236	428
316.467	344
326.684	336
336.887	390
347.075	330
357.251	338
367.413	324
377.562	286
387.697	226
397.819	210
407.926	268
418.02	308
428.101	222
438.169	174
448.223	182
458.264	158
468.291	212
478.306	410
488.307	450
498.294	222
508.269	258
518.23	304
528.177	364
538.113	740
548.034	458
557.942	482
567.838	2454
577.72	1554
587.589	556
597.446	440
607.289	240
617.119	214
626.936	266
636.741	296
646.533	226
656.313	184
666.078	170
675.831	160
685.571	176
695.299	146
705.014	184
714.716	244
724.406	206
734.082	198
743.746	252
753.398	284
763.037	194
772.664	188
782.278	222
791.879	172
801.467	172
811.044	198
820.608	234
830.16	734
839.699	404
849.226	244
858.741	234
868.243	208
877.731	198
887.209	172
896.674	174
906.128	174
915.569	158
924.997	178
934.414	208
943.818	226
953.211	504
962.59	844
971.958	426
981.314	232
990.659	230
999.99	200
1009.31	206
1018.62	202
1027.91	258
1037.2	250
1046.47	216
1055.73	186
1064.98	194
1074.22	200
1083.44	200
1092.65	224
1101.86	242
1111.05	772
1120.22	364
1129.39	264
1138.54	226
1147.69	216
1156.82	230
1165.94	242
1175.05	264
1184.14	536
1193.23	412
1202.3	426
1211.36	288
1220.41	246
1229.45	322
1238.48	242
1247.5	220
1256.5	206
1265.49	238
1274.48	260
1283.45	350
1292.41	492
1301.36	1452
1310.29	1270
1319.22	542
1328.13	452
1337.04	344
1345.93	342
1354.81	348
1363.68	296
1372.54	504
1381.38	986
1390.22	402
1399.05	268
1407.86	288
1416.66	312
1425.46	404
1434.24	446
1443.01	482
1451.77	378
1460.52	356
1469.25	342
1477.98	328
1486.7	292
1495.4	294
1504.1	278
1512.78	260
1521.45	270
1530.11	276
1538.76	262
1547.41	282
1556.03	272
1564.65	292
1573.26	346
1581.86	436
1590.45	752
1599.02	1322
1607.59	1192
1616.14	686
1624.69	394
1633.22	266
1641.75	248
1650.26	232
1658.76	236
1667.26	212
1675.74	230
1684.21	238
1692.67	248
1701.12	256
1709.56	236
1717.99	218
1726.41	212
1734.82	222
1743.22	204
1751.61	224
1759.99	208
1768.36	204
1776.71	230
1785.06	226
1793.4	210
1801.73	202
1810.04	224
1818.35	206
1826.65	216
1834.94	214
1843.21	214
1851.48	204
1859.74	216
1867.98	212
1876.22	222
1884.45	212
1892.67	214
1900.87	206
1909.07	204
1917.26	220
1925.43	224
1933.6	202
1941.76	222
1949.91	212
1958.05	204
1966.17	218
1974.29	200
1982.4	212
1990.5	198
1998.59	206
2006.67	214
2014.74	218
2022.8	204
2030.85	220
2038.89	206
2046.92	212
2054.94	202
2062.95	202
2070.96	224
2078.95	226
2086.93	210
2094.91	226
2102.87	214
2110.83	196
2118.77	218
2126.71	228
2134.63	212
2142.55	204
2150.46	208
2158.35	214
2166.24	206
2174.12	210
2181.99	210
2189.85	222
2197.7	208
2205.55	202
2213.38	232
2221.2	228
2229.02	216
2236.82	204
2244.62	200
2252.4	218
2260.18	198
2267.95	224
2275.71	214
2283.46	218
2291.2	218
2298.93	226
2306.65	208
2314.37	210
2322.07	224
2329.77	216
2337.45	222
2345.13	216
2352.8	210
2360.46	208
2368.11	214
2375.75	214
2383.38	222
2391.01	222
2398.62	210
2406.23	218
2413.82	226
2421.41	210
2428.99	208
2436.56	214
2444.12	208
2449.79	216

File: ps-ppo-7jan25-0,0000-map2_Y10_X08.txt
182.393	644
192.79	576
203.174	468
213.542	428
223.897	556
234.238	1200
244.566	832
254.878	452
265.178	288
275.463	278
285.734	380
295.992	590
306.236	438
316.467	348
326.684	362
336.887	384
347.075	326
357.251	338
367.413	346
377.562	282
387.697	248
397.819	230
407.926	264
418.02	338
428.101	214
438.169	184
448.223	180
458.264	176
468.291	248
478.306	380
488.307	462
498.294	232
508.269	254
518.23	314
528.177	386
538.113	782
548.034	438
557.942	492
567.838	2450
577.72	1522
587.589	614
597.446	446
607.289	242
617.119	216
626.936	264
636.741	298
646.533	246
656.313	212
666.078	176
675.831	160
685.571	188
695.299	148
705.014	168
714.716	256
724.406	190
734.082	206
743.746	254
753.398	296
763.037	216
772.664	186
782.278	222
791.879	182
801.467	198
811.044	200
820.608	244
830.16	774
839.699	374
849.226	256
858.741	216
868.243	188
877.731	176
887.209	184
896.674	188
906.128	174
915.569	180
924.997	184
934.414	202
943.818	244
953.211	494
962.59	878
971.958	458
981.314	234
990.659	222
999.99	206
1009.31	198
1018.62	232
1027.91	244
1037.2	258
1046.47	240
1055.73	214
1064.98	194
1074.22	208
1083.44	192
1092.65	194
1101.86	228
1111.05	778
1120.22	376
1129.39	252
1138.54	222
1147.69	220
1156.82	230
1165.94	264
1175.05	266
1184.14	540
1193.23	418
1202.3	448
1211.36	294
1220.41	240
1229.45	318
1238.48	240
1247.5	212
1256.5	226
1265.49	236
1274.48	252
1283.45	324
1292.41	476
1301.36	1486
1310.29	1300
1319.22	532
1328.13	442
1337.04	320
1345.93	328
1354.81	346
1363.68	302
1372.54	512
1381.38	986
1390.22	392
1399.05	270
1407.86	280
1416.66	334
1425.46	418
1434.24	460
1443.01	490
1451.77	366
1460.52	370
1469.25	332
1477.98	350
1486.7	304
1495.4	276
1504.1	274
1512.78	270
1521.45	264
1530.11	234
1538.76	274
1547.41	312
1556.03	292
1564.65	322
1573.26	350
1581.86	466
1590.45	738
1599.02	1292
1607.59	1234
1616.14	704
1624.69	368
1633.22	298
1641.75	270
1650.26	252
1658.76	242
1667.26	262
1675.74	236
1684.21	234
1692.67	250
1701.12	260
1709.56	238
1717.99	240
1726.41	212
1734.82	222
1743.22	230
1751.61	210
1759.99	230
1768.36	206
1776.71	208
1785.06	232
1793.4	202
1801.73	230
1810.04	216
1818.35	210
1826.65	216
1834.94	204
1843.21	204
1851.48	208
1859.74	216
1867.98	222
1876.22	218
1884.45	218
1892.67	222
1900.87	208
1909.07	206
1917.26	216
1925.43	214
1933.6	208
1941.76	212
1949.91	202
1958.05	204
1966.17	214
1974.29	210
1982.4	206
1990.5	222
1998.59	226
2006.67	204
2014.74	216
2022.8	214
2030.85	188
2038.89	216
2046.92	212
2054.94	210
2062.95	202
2070.96	224
2078.95	212
2086.93	206
2094.91	220
2102.87	204
2110.83	222
2118.77	202
2126.71	202
2134.63	204
2142.55	212
2150.46	210
2158.35	216
2166.24	210
2174.12	212
2181.99	220
2189.85	216
2197.7	200
2205.55	208
2213.38	196
2221.2	226
2229.02	222
2236.82	202
2244.62	198
2252.4	204
2260.18	214
2267.95	202
2275.71	208
2283.46	216
2291.2	208
2298.93	192
2306.65	220
2314.37	222
2322.07	218
2329.77	236
2337.45	240
2345.13	210
2352.8	212
2360.46	196
2368.11	214
2375.75	212
2383.38	232
2391.01	212
2398.62	218
2406.23	214
2413.82	204
2421.41	216
2428.99	204
2436.56	216
2444.12	210
2449.79	212

File: ps-ppo-7jan25-0,0000-map2_Y10_X09.txt
182.393	666
192.79	572
203.174	486
213.542	426
223.897	546
234.238	1180
244.566	868
254.878	460
265.178	328
275.463	280
285.734	356
295.992	574
306.236	448
316.467	376
326.684	370
336.887	400
347.075	332
357.251	356
367.413	332
377.562	322
387.697	234
397.819	234
407.926	270
418.02	324
428.101	224
438.169	194
448.223	178
458.264	168
468.291	224
478.306	362
488.307	430
498.294	254
508.269	254
518.23	328
528.177	382
538.113	760
548.034	448
557.942	508
567.838	2466
577.72	1512
587.589	588
597.446	434
607.289	220
617.119	216
626.936	268
636.741	314
646.533	260
656.313	208
666.078	176
675.831	164
685.571	178
695.299	182
705.014	176
714.716	240
724.406	224
734.082	198
743.746	278
753.398	302
763.037	200
772.664	208
782.278	222
791.879	188
801.467	200
811.044	216
820.608	236
830.16	760
839.699	390
849.226	254
858.741	240
868.243	218
877.731	198
887.209	186
896.674	192
906.128	198
915.569	172
924.997	188
934.414	206
943.818	252
953.211	520
962.59	846
971.958	444
981.314	264
990.659	216
999.99	200
1009.31	188
1018.62	234
1027.91	268
1037.2	278
1046.47	238
1055.73	224
1064.98	204
1074.22	200
1083.44	204
1092.65	202
1101.86	238
1111.05	758
1120.22	392
1129.39	256
1138.54	236
1147.69	228
1156.82	244
1165.94	270
1175.05	270
1184.14	518
1193.23	452
1202.3	468
1211.36	300
1220.41	242
1229.45	340
1238.48	246
1247.5	230
1256.5	238
1265.49	250
1274.48	280
1283.45	356
1292.41	484
1301.36	1482
1310.29	1300
1319.22	542
1328.13	448
1337.04	318
1345.93	342
1354.81	374
1363.68	308
1372.54	510
1381.38	998
1390.22	408
1399.05	274
1407.86	278
1416.66	308
1425.46	392
1434.24	444
1443.01	496
1451.77	416
1460.52	390
1469.25	352
1477.98	368
1486.7	326
1495.4	284
1504.1	270
1512.78	276
1521.45	260
1530.11	272
1538.76	258
1547.41	272
1556.03	312
1564.65	318
1573.26	360
1581.86	462
1590.45	752
1599.02	1302
1607.59	1252
1616.14	756
1624.69	402
1633.22	286
1641.75	254
1650.26	250
1658.76	244
1667.26	242
1675.74	230
1684.21	240
1692.67	262
1701.12	240
1709.56	238
1717.99	246
1726.41	232
1734.82	224
1743.22	216
1751.61	224
1759.99	232
1768.36	224
1776.71	230
1785.06	214
1793.4	234
1801.73	222
1810.04	220
1818.35	212
1826.65	204
1834.94	218
1843.21	198
1851.48	216
1859.74	224
1867.98	192
1876.22	216
1884.45	220
1892.67	240
1900.87	220
1909.07	226
1917.26	206
1925.43	220
1933.6	220
1941.76	204
1949.91	204
1958.05	204
1966.17	212
1974.29	220
1982.4	212
1990.5	218
1998.59	222
2006.67	212
2014.74	212
2022.8	214
2030.85	222
2038.89	206
2046.92	216
2054.94	204
2062.95	222
2070.96	204
2078.95	210
2086.93	216
2094.91	204
2102.87	218
2110.83	200
2118.77	210
2126.71	220
2134.63	228
2142.55	210
2150.46	226
2158.35	220
2166.24	220
2174.12	204
2181.99	196
2189.85	218
2197.7	198
2205.55	218
2213.38	196
2221.2	202
2229.02	200
2236.82	210
2244.62	206
2252.4	220
2260.18	196
2267.95	214
2275.71	212
2283.46	200
2291.2	222
2298.93	222
2306.65	228
2314.37	216
2322.07	214
2329.77	222
2337.45	222
2345.13	206
2352.8	232
2360.46	212
2368.11	194
2375.75	208
2383.38	204
2391.01	224
2398.62	210
2406.23	222
2413.82	208
2421.41	200
2428.99	216
2436.56	218
2444.12	214
2449.79	204