Folder: NRC_SU25_Spectral_Classification/Mixture_Classification/Jesse_Dataset_v2/Pure Raman/Polypropylene oxide/633nm (part 2)

File: ps-ppo-7jan25-0,0000-map2_Y01_X02.txt
182.393	690
192.79	602
203.174	556
213.542	456
223.897	624
234.238	1312
244.566	910
254.878	458
265.178	298
275.463	296
285.734	382
295.992	618
306.236	448
316.467	382
326.684	398
336.887	410
347.075	366
357.251	380
367.413	344
377.562	320
387.697	254
397.819	252
407.926	280
418.02	358
428.101	228
438.169	196
448.223	178
458.264	178
468.291	234
478.306	422
488.307	472
498.294	242
508.269	250
518.23	302
528.177	396
538.113	820
548.034	478
557.942	534
567.838	2800
577.72	1582
587.589	622
597.446	480
607.289	250
617.119	212
626.936	270
636.741	336
646.533	248
656.313	216
666.078	180
675.831	176
685.571	182
695.299	174
705.014	198
714.716	244
724.406	218
734.082	220
743.746	286
753.398	298
763.037	204
772.664	208
782.278	224
791.879	182
801.467	208
811.044	236
820.608	254
830.16	830
839.699	408
849.226	268
858.741	232
868.243	196
877.731	196
887.209	192
896.674	200
906.128	192
915.569	182
924.997	188
934.414	202
943.818	256
953.211	570
962.59	892
971.958	466
981.314	242
990.659	242
999.99	208
1009.31	202
1018.62	228
1027.91	264
1037.2	274
1046.47	232
1055.73	212
1064.98	202
1074.22	198
1083.44	216
1092.65	218
1101.86	260
1111.05	880
1120.22	386
1129.39	282
1138.54	254
1147.69	228
1156.82	254
1165.94	276
1175.05	286
1184.14	544
1193.23	448
1202.3	480
1211.36	312
1220.41	248
1229.45	364
1238.48	262
1247.5	214
1256.5	240
1265.49	258
1274.48	282
1283.45	344
1292.41	514
1301.36	1630
1310.29	1326
1319.22	558
1328.13	504
1337.04	356
1345.93	366
1354.81	342
1363.68	304
1372.54	532
1381.38	1062
1390.22	410
1399.05	296
1407.86	278
1416.66	308
1425.46	420
1434.24	468
1443.01	526
1451.77	396
1460.52	394
1469.25	372
1477.98	360
1486.7	320
1495.4	274
1504.1	292
1512.78	302
1521.45	258
1530.11	294
1538.76	282
1547.41	284
1556.03	308
1564.65	318
1573.26	366
1581.86	462
1590.45	784
1599.02	1398
1607.59	1304
1616.14	768
1624.69	436
1633.22	296
1641.75	278
1650.26	248
1658.76	232
1667.26	260
1675.74	232
1684.21	230
1692.67	280
1701.12	238
1709.56	250
1717.99	230
1726.41	230
1734.82	228
1743.22	224
1751.61	212
1759.99	208
1768.36	220
1776.71	224
1785.06	220
1793.4	220
1801.73	210
1810.04	218
1818.35	218
1826.65	218
1834.94	204
1843.21	222
1851.48	220
1859.74	214
1867.98	206
1876.22	214
1884.45	220
1892.67	228
1900.87	196
1909.07	192
1917.26	236
1925.43	226
1933.6	216
1941.76	218
1949.91	222
1958.05	214
1966.17	234
1974.29	198
1982.4	222
1990.5	222
1998.59	206
2006.67	206
2014.74	234
2022.8	220
2030.85	200
2038.89	208
2046.92	208
2054.94	232
2062.95	238
2070.96	220
2078.95	224
2086.93	198
2094.91	218
2102.87	222
2110.83	210
2118.77	220
2126.71	216
2134.63	218
2142.55	228
2150.46	212
2158.35	204
2166.24	222
2174.12	226
2181.99	218
2189.85	216
2197.7	220
2205.55	204
2213.38	212
2221.2	202
2229.02	212
2236.82	202
2244.62	232
2252.4	224
2260.18	220
2267.95	224
2275.71	214
2283.46	196
2291.2	224
2298.93	204
2306.65	208
2314.37	228
2322.07	238
2329.77	208
2337.45	216
2345.13	224
2352.8	208
2360.46	218
2368.11	198
2375.75	216
2383.38	212
2391.01	220
2398.62	202
2406.23	228
2413.82	232
2421.41	220
2428.99	218
2436.56	208
2444.12	206
2449.79	202

File: ps-ppo-7jan25-0,0000-map2_Y01_X03.txt
182.393	692
192.79	596
203.174	546
213.542	452
223.897	616
234.238	1288
244.566	906
254.878	482
265.178	314
275.463	312
285.734	386
295.992	638
306.236	472
316.467	390
326.684	370
336.887	378
347.075	360
357.251	368
367.413	316
377.562	308
387.697	246
397.819	232
407.926	296
418.02	338
428.101	242
438.169	202
448.223	174
458.264	178
468.291	248
478.306	414
488.307	470
498.294	228
508.269	268
518.23	336
528.177	366
538.113	770
548.034	462
557.942	512
567.838	2744
577.72	1600
587.589	644
597.446	466
607.289	260
617.119	210
626.936	284
636.741	326
646.533	260
656.313	214
666.078	186
675.831	180
685.571	182
695.299	170
705.014	180
714.716	240
724.406	212
734.082	224
743.746	284
753.398	316
763.037	196
772.664	214
782.278	226
791.879	204
801.467	194
811.044	212
820.608	236
830.16	824
839.699	412
849.226	276
858.741	236
868.243	196
877.731	206
887.209	174
896.674	184
906.128	180
915.569	166
924.997	176
934.414	208
943.818	266
953.211	554
962.59	924
971.958	454
981.314	260
990.659	228
999.99	210
1009.31	222
1018.62	228
1027.91	256
1037.2	298
1046.47	254
1055.73	214
1064.98	192
1074.22	228
1083.44	210
1092.65	234
1101.86	248
1111.05	836
1120.22	378
1129.39	262
1138.54	252
1147.69	246
1156.82	226
1165.94	280
1175.05	278
1184.14	588
1193.23	464
1202.3	458
1211.36	304
1220.41	254
1229.45	344
1238.48	266
1247.5	218
1256.5	234
1265.49	232
1274.48	266
1283.45	374
1292.41	498
1301.36	1586
1310.29	1332
1319.22	542
1328.13	458
1337.04	348
1345.93	376
1354.81	374
1363.68	302
1372.54	552
1381.38	1096
1390.22	408
1399.05	286
1407.86	264
1416.66	354
1425.46	432
1434.24	462
1443.01	494
1451.77	398
1460.52	370
1469.25	358
1477.98	350
1486.7	312
1495.4	274
1504.1	292
1512.78	290
1521.45	282
1530.11	276
1538.76	288
1547.41	290
1556.03	304
1564.65	308
1573.26	358
1581.86	458
1590.45	794
1599.02	1392
1607.59	1322
1616.14	748
1624.69	412
1633.22	300
1641.75	252
1650.26	256
1658.76	252
1667.26	228
1675.74	228
1684.21	228
1692.67	272
1701.12	260
1709.56	240
1717.99	238
1726.41	214
1734.82	204
1743.22	226
1751.61	214
1759.99	232
1768.36	200
1776.71	220
1785.06	208
1793.4	224
1801.73	222
1810.04	208
1818.35	216
1826.65	216
1834.94	230
1843.21	208
1851.48	224
1859.74	210
1867.98	224
1876.22	216
1884.45	218
1892.67	206
1900.87	216
1909.07	216
1917.26	228
1925.43	198
1933.6	204
1941.76	212
1949.91	212
1958.05	204
1966.17	220
1974.29	206
1982.4	228
1990.5	220
1998.59	216
2006.67	220
2014.74	200
2022.8	216
2030.85	200
2038.89	210
2046.92	216
2054.94	210
2062.95	210
2070.96	224
2078.95	208
2086.93	218
2094.91	218
2102.87	202
2110.83	202
2118.77	206
2126.71	216
2134.63	226
2142.55	226
2150.46	194
2158.35	214
2166.24	214
2174.12	196
2181.99	212
2189.85	220
2197.7	208
2205.55	208
2213.38	208
2221.2	198
2229.02	220
2236.82	212
2244.62	210
2252.4	208
2260.18	216
2267.95	218
2275.71	212
2283.46	212
2291.2	216
2298.93	200
2306.65	212
2314.37	226
2322.07	226
2329.77	224
2337.45	228
2345.13	216
2352.8	200
2360.46	218
2368.11	202
2375.75	228
2383.38	214
2391.01	228
2398.62	200
2406.23	222
2413.82	204
2421.41	216
2428.99	212
2436.56	198
2444.12	226
2449.79	212

File: ps-ppo-7jan25-0,0000-map2_Y01_X04.txt
182.393	686
192.79	622
203.174	508
213.542	462
223.897	620
234.238	1270
244.566	872
254.878	488
265.178	300
275.463	298
285.734	402
295.992	632
306.236	480
316.467	390
326.684	372
336.887	408
347.075	366
357.251	358
367.413	350
377.562	318
387.697	250
397.819	234
407.926	272
418.02	334
428.101	232
438.169	194
448.223	158
458.264	174
468.291	246
478.306	414
488.307	488
498.294	242
508.269	260
518.23	306
528.177	434
538.113	802
548.034	432
557.942	508
567.838	2758
577.72	1574
587.589	614
597.446	462
607.289	246
617.119	236
626.936	266
636.741	320
646.533	242
656.313	204
666.078	178
675.831	174
685.571	174
695.299	178
705.014	180
714.716	252
724.406	204
734.082	216
743.746	288
753.398	286
763.037	196
772.664	214
782.278	208
791.879	206
801.467	182
811.044	206
820.608	240
830.16	814
839.699	402
849.226	282
858.741	244
868.243	202
877.731	176
887.209	190
896.674	174
906.128	176
915.569	190
924.997	178
934.414	190
943.818	264
953.211	558
962.59	926
971.958	450
981.314	274
990.659	252
999.99	210
1009.31	214
1018.62	224
1027.91	272
1037.2	282
1046.47	250
1055.73	208
1064.98	208
1074.22	202
1083.44	224
1092.65	228
1101.86	250
1111.05	840
1120.22	388
1129.39	262
1138.54	258
1147.69	234
1156.82	244
1165.94	268
1175.05	272
1184.14	578
1193.23	438
1202.3	456
1211.36	300
1220.41	262
1229.45	360
1238.48	242
1247.5	222
1256.5	230
1265.49	250
1274.48	290
1283.45	346
1292.41	530
1301.36	1614
1310.29	1364
1319.22	564
1328.13	452
1337.04	350
1345.93	376
1354.81	364
1363.68	308
1372.54	520
1381.38	1020
1390.22	406
1399.05	278
1407.86	258
1416.66	324
1425.46	428
1434.24	458
1443.01	516
1451.77	398
1460.52	396
1469.25	402
1477.98	360
1486.7	308
1495.4	292
1504.1	280
1512.78	268
1521.45	268
1530.11	272
1538.76	298
1547.41	286
1556.03	292
1564.65	316
1573.26	350
1581.86	476
1590.45	790
1599.02	1388
1607.59	1320
1616.14	752
1624.69	410
1633.22	314
1641.75	264
1650.26	258
1658.76	250
1667.26	214
1675.74	254
1684.21	244
1692.67	238
1701.12	238
1709.56	260
1717.99	238
1726.41	234
1734.82	220
1743.22	230
1751.61	214
1759.99	222
1768.36	222
1776.71	208
1785.06	212
1793.4	206
1801.73	228
1810.04	214
1818.35	210
1826.65	218
1834.94	220
1843.21	210
1851.48	224
1859.74	222
1867.98	220
1876.22	220
1884.45	200
1892.67	212
1900.87	228
1909.07	224
1917.26	230
1925.43	214
1933.6	228
1941.76	220
1949.91	216
1958.05	212
1966.17	214
1974.29	228
1982.4	216
1990.5	214
1998.59	210
2006.67	218
2014.74	238
2022.8	228
2030.85	206
2038.89	222
2046.92	212
2054.94	216
2062.95	232
2070.96	226
2078.95	236
2086.93	206
2094.91	224
2102.87	204
2110.83	224
2118.77	212
2126.71	212
2134.63	224
2142.55	216
2150.46	208
2158.35	220
2166.24	196
2174.12	212
2181.99	206
2189.85	214
2197.7	216
2205.55	212
2213.38	212
2221.2	196
2229.02	216
2236.82	232
2244.62	204
2252.4	218
2260.18	214
2267.95	200
2275.71	224
2283.46	218
2291.2	222
2298.93	232
2306.65	238
2314.37	228
2322.07	218
2329.77	238
2337.45	228
2345.13	216
2352.8	220
2360.46	208
2368.11	210
2375.75	238
2383.38	220
2391.01	224
2398.62	234
2406.23	230
2413.82	236
2421.41	208
2428.99	214
2436.56	224
2444.12	206
2449.79	224

File: ps-ppo-7jan25-0,0000-map2_Y01_X05.txt
182.393	708
192.79	624
203.174	540
213.542	450
223.897	634
234.238	1330
244.566	878
254.878	490
265.178	334
275.463	298
285.734	406
295.992	652
306.236	484
316.467	360
326.684	360
336.887	398
347.075	350
357.251	406
367.413	336
377.562	334
387.697	278
397.819	254
407.926	310
418.02	354
428.101	250
438.169	204
448.223	184
458.264	194
468.291	242
478.306	384
488.307	486
498.294	232
508.269	254
518.23	328
528.177	384
538.113	788
548.034	456
557.942	504
567.838	2768
577.72	1572
587.589	622
597.446	452
607.289	234
617.119	232
626.936	280
636.741	342
646.533	256
656.313	220
666.078	190
675.831	184
685.571	174
695.299	172
705.014	182
714.716	246
724.406	208
734.082	202
743.746	300
753.398	302
763.037	224
772.664	214
782.278	238
791.879	200
801.467	204
811.044	210
820.608	224
830.16	844
839.699	408
849.226	258
858.741	252
868.243	222
877.731	200
887.209	190
896.674	176
906.128	196
915.569	188
924.997	186
934.414	216
943.818	262
953.211	544
962.59	912
971.958	442
981.314	248
990.659	236
999.99	212
1009.31	216
1018.62	232
1027.91	272
1037.2	272
1046.47	242
1055.73	204
1064.98	210
1074.22	224
1083.44	230
1092.65	212
1101.86	238
1111.05	810
1120.22	396
1129.39	258
1138.54	272
1147.69	228
1156.82	252
1165.94	258
1175.05	292
1184.14	586
1193.23	462
1202.3	486
1211.36	330
1220.41	256
1229.45	356
1238.48	244
1247.5	234
1256.5	238
1265.49	258
1274.48	294
1283.45	348
1292.41	504
1301.36	1566
1310.29	1340
1319.22	550
1328.13	438
1337.04	350
1345.93	370
1354.81	360
1363.68	334
1372.54	558
1381.38	1064
1390.22	392
1399.05	270
1407.86	298
1416.66	346
1425.46	428
1434.24	448
1443.01	512
1451.77	430
1460.52	424
1469.25	368
1477.98	380
1486.7	332
1495.4	284
1504.1	284
1512.78	286
1521.45	272
1530.11	286
1538.76	266
1547.41	282
1556.03	290
1564.65	310
1573.26	372
1581.86	474
1590.45	784
1599.02	1378
1607.59	1302
1616.14	740
1624.69	400
1633.22	324
1641.75	284
1650.26	254
1658.76	260
1667.26	220
1675.74	228
1684.21	242
1692.67	270
1701.12	258
1709.56	248
1717.99	248
1726.41	234
1734.82	226
1743.22	226
1751.61	220
1759.99	228
1768.36	208
1776.71	204
1785.06	212
1793.4	224
1801.73	250
1810.04	236
1818.35	226
1826.65	210
1834.94	216
1843.21	212
1851.48	232
1859.74	228
1867.98	232
1876.22	220
1884.45	226
1892.67	224
1900.87	240
1909.07	200
1917.26	234
1925.43	228
1933.6	216
1941.76	208
1949.91	226
1958.05	212
1966.17	240
1974.29	236
1982.4	206
1990.5	226
1998.59	238
2006.67	218
2014.74	224
2022.8	222
2030.85	226
2038.89	230
2046.92	238
2054.94	218
2062.95	224
2070.96	226
2078.95	230
2086.93	210
2094.91	220
2102.87	220
2110.83	224
2118.77	226
2126.71	228
2134.63	222
2142.55	230
2150.46	220
2158.35	210
2166.24	218
2174.12	214
2181.99	222
2189.85	206
2197.7	210
2205.55	222
2213.38	214
2221.2	216
2229.02	218
2236.82	208
2244.62	218
2252.4	218
2260.18	214
2267.95	218
2275.71	224
2283.46	220
2291.2	220
2298.93	212
2306.65	232
2314.37	250
2322.07	220
2329.77	222
2337.45	222
2345.13	222
2352.8	218
2360.46	226
2368.11	226
2375.75	220
2383.38	232
2391.01	230
2398.62	246
2406.23	236
2413.82	232
2421.41	230
2428.99	224
2436.56	198
2444.12	242
2449.79	212

File: ps-ppo-7jan25-0,0000-map2_Y01_X06.txt
182.393	698
192.79	638
203.174	530
213.542	492
223.897	618
234.238	1254
244.566	876
254.878	476
265.178	328
275.463	284
285.734	400
295.992	640
306.236	482
316.467	364
326.684	378
336.887	406
347.075	380
357.251	380
367.413	336
377.562	334
387.697	274
397.819	246
407.926	296
418.02	370
428.101	246
438.169	196
448.223	182
458.264	188
468.291	242
478.306	406
488.307	456
498.294	240
508.269	284
518.23	320
528.177	384
538.113	744
548.034	466
557.942	530
567.838	2758
577.72	1600
587.589	612
597.446	476
607.289	248
617.119	226
626.936	290
636.741	352
646.533	244
656.313	214
666.078	174
675.831	174
685.571	186
695.299	178
705.014	192
714.716	250
724.406	208
734.082	230
743.746	286
753.398	298
763.037	194
772.664	198
782.278	220
791.879	194
801.467	192
811.044	226
820.608	238
830.16	852
839.699	406
849.226	274
858.741	246
868.243	216
877.731	190
887.209	190
896.674	190
906.128	184
915.569	186
924.997	200
934.414	208
943.818	270
953.211	538
962.59	886
971.958	436
981.314	256
990.659	236
999.99	206
1009.31	220
1018.62	244
1027.91	270
1037.2	284
1046.47	254
1055.73	210
1064.98	198
1074.22	182
1083.44	210
1092.65	210
1101.86	260
1111.05	850
1120.22	392
1129.39	258
1138.54	266
1147.69	238
1156.82	250
1165.94	280
1175.05	280
1184.14	558
1193.23	446
1202.3	500
1211.36	334
1220.41	266
1229.45	344
1238.48	264
1247.5	244
1256.5	246
1265.49	250
1274.48	292
1283.45	360
1292.41	512
1301.36	1630
1310.29	1336
1319.22	576
1328.13	456
1337.04	370
1345.93	396
1354.81	368
1363.68	336
1372.54	540
1381.38	1044
1390.22	406
1399.05	286
1407.86	284
1416.66	336
1425.46	418
1434.24	454
1443.01	490
1451.77	406
1460.52	392
1469.25	356
1477.98	380
1486.7	324
1495.4	286
1504.1	266
1512.78	272
1521.45	276
1530.11	252
1538.76	280
1547.41	284
1556.03	288
1564.65	316
1573.26	364
1581.86	468
1590.45	768
1599.02	1376
1607.59	1282
1616.14	722
1624.69	402
1633.22	310
1641.75	274
1650.26	260
1658.76	242
1667.26	232
1675.74	242
1684.21	230
1692.67	256
1701.12	256
1709.56	260
1717.99	240
1726.41	232
1734.82	216
1743.22	230
1751.61	212
1759.99	226
1768.36	214
1776.71	220
1785.06	228
1793.4	218
1801.73	220
1810.04	234
1818.35	226
1826.65	194
1834.94	218
1843.21	228
1851.48	240
1859.74	222
1867.98	212
1876.22	198
1884.45	226
1892.67	224
1900.87	212
1909.07	212
1917.26	210
1925.43	226
1933.6	210
1941.76	202
1949.91	230
1958.05	232
1966.17	216
1974.29	208
1982.4	222
1990.5	216
1998.59	204
2006.67	230
2014.74	222
2022.8	214
2030.85	212
2038.89	218
2046.92	224
2054.94	218
2062.95	230
2070.96	218
2078.95	216
2086.93	222
2094.91	234
2102.87	226
2110.83	220
2118.77	210
2126.71	224
2134.63	232
2142.55	212
2150.46	230
2158.35	218
2166.24	224
2174.12	198
2181.99	222
2189.85	218
2197.7	208
2205.55	208
2213.38	202
2221.2	220
2229.02	220
2236.82	212
2244.62	208
2252.4	216
2260.18	220
2267.95	222
2275.71	210
2283.46	218
2291.2	226
2298.93	200
2306.65	214
2314.37	222
2322.07	238
2329.77	242
2337.45	240
2345.13	228
2352.8	218
2360.46	216
2368.11	216
2375.75	218
2383.38	232
2391.01	216
2398.62	222
2406.23	236
2413.82	210
2421.41	214
2428.99	198
2436.56	226
2444.12	210
2449.79	244

File: ps-ppo-7jan25-0,0000-map2_Y01_X07.txt
182.393	732
192.79	596
203.174	510
213.542	472
223.897	638
234.238	1302
244.566	906
254.878	490
265.178	324
275.463	282
285.734	410
295.992	612
306.236	468
316.467	392
326.684	376
336.887	400
347.075	362
357.251	390
367.413	334
377.562	300
387.697	258
397.819	232
407.926	292
418.02	344
428.101	226
438.169	206
448.223	174
458.264	182
468.291	258
478.306	396
488.307	472
498.294	242
508.269	266
518.23	328
528.177	404
538.113	794
548.034	468
557.942	508
567.838	2796
577.72	1558
587.589	634
597.446	444
607.289	248
617.119	240
626.936	256
636.741	316
646.533	250
656.313	224
666.078	184
675.831	162
685.571	180
695.299	146
705.014	188
714.716	258
724.406	192
734.082	214
743.746	290
753.398	300
763.037	192
772.664	200
782.278	214
791.879	202
801.467	190
811.044	196
820.608	240
830.16	814
839.699	418
849.226	264
858.741	242
868.243	206
877.731	192
887.209	198
896.674	186
906.128	178
915.569	176
924.997	176
934.414	224
943.818	270
953.211	544
962.59	908
971.958	444
981.314	246
990.659	226
999.99	218
1009.31	210
1018.62	228
1027.91	296
1037.2	278
1046.47	236
1055.73	216
1064.98	208
1074.22	206
1083.44	206
1092.65	216
1101.86	246
1111.05	840
1120.22	372
1129.39	256
1138.54	262
1147.69	246
1156.82	252
1165.94	286
1175.05	282
1184.14	542
1193.23	452
1202.3	470
1211.36	306
1220.41	258
1229.45	332
1238.48	244
1247.5	244
1256.5	226
1265.49	262
1274.48	272
1283.45	376
1292.41	498
1301.36	1580
1310.29	1310
1319.22	576
1328.13	484
1337.04	348
1345.93	378
1354.81	366
1363.68	330
1372.54	568
1381.38	1048
1390.22	428
1399.05	280
1407.86	272
1416.66	312
1425.46	426
1434.24	502
1443.01	506
1451.77	414
1460.52	360
1469.25	412
1477.98	368
1486.7	344
1495.4	294
1504.1	284
1512.78	262
1521.45	282
1530.11	272
1538.76	270
1547.41	302
1556.03	284
1564.65	306
1573.26	346
1581.86	452
1590.45	772
1599.02	1392
1607.59	1282
1616.14	780
1624.69	396
1633.22	302
1641.75	286
1650.26	258
1658.76	230
1667.26	240
1675.74	236
1684.21	236
1692.67	242
1701.12	240
1709.56	236
1717.99	220
1726.41	228
1734.82	224
1743.22	216
1751.61	206
1759.99	218
1768.36	228
1776.71	214
1785.06	226
1793.4	232
1801.73	220
1810.04	226
1818.35	212
1826.65	216
1834.94	204
1843.21	220
1851.48	212
1859.74	214
1867.98	224
1876.22	226
1884.45	214
1892.67	202
1900.87	212
1909.07	212
1917.26	224
1925.43	228
1933.6	238
1941.76	212
1949.91	218
1958.05	198
1966.17	208
1974.29	216
1982.4	228
1990.5	202
1998.59	204
2006.67	222
2014.74	224
2022.8	224
2030.85	208
2038.89	228
2046.92	212
2054.94	214
2062.95	224
2070.96	242
2078.95	196
2086.93	218
2094.91	208
2102.87	220
2110.83	202
2118.77	218
2126.71	210
2134.63	202
2142.55	208
2150.46	218
2158.35	216
2166.24	206
2174.12	218
2181.99	224
2189.85	216
2197.7	180
2205.55	220
2213.38	204
2221.2	200
2229.02	216
2236.82	198
2244.62	216
2252.4	226
2260.18	228
2267.95	206
2275.71	224
2283.46	226
2291.2	198
2298.93	214
2306.65	212
2314.37	204
2322.07	224
2329.77	212
2337.45	226
2345.13	228
2352.8	208
2360.46	218
2368.11	222
2375.75	238
2383.38	224
2391.01	212
2398.62	226
2406.23	230
2413.82	218
2421.41	220
2428.99	212
2436.56	212
2444.12	196
2449.79	210

File: ps-ppo-7jan25-0,0000-map2_Y01_X08.txt
182.393	702
192.79	590
203.174	516
213.542	460
223.897	634
234.238	1264
244.566	920
254.878	508
265.178	308
275.463	264
285.734	402
295.992	680
306.236	508
316.467	396
326.684	374
336.887	426
347.075	350
357.251	378
367.413	340
377.562	292
387.697	266
397.819	234
407.926	304
418.02	354
428.101	228
438.169	198
448.223	194
458.264	192
468.291	256
478.306	398
488.307	474
498.294	242
508.269	266
518.23	306
528.177	394
538.113	778
548.034	448
557.942	512
567.838	2688
577.72	1566
587.589	604
597.446	482
607.289	256
617.119	228
626.936	268
636.741	322
646.533	248
656.313	210
666.078	182
675.831	182
685.571	184
695.299	176
705.014	192
714.716	244
724.406	222
734.082	208
743.746	280
753.398	298
763.037	208
772.664	208
782.278	234
791.879	200
801.467	204
811.044	226
820.608	254
830.16	832
839.699	406
849.226	268
858.741	228
868.243	196
877.731	198
887.209	196
896.674	194
906.128	188
915.569	188
924.997	200
934.414	220
943.818	270
953.211	590
962.59	932
971.958	462
981.314	260
990.659	256
999.99	190
1009.31	202
1018.62	250
1027.91	274
1037.2	280
1046.47	226
1055.73	206
1064.98	214
1074.22	208
1083.44	212
1092.65	214
1101.86	266
1111.05	878
1120.22	370
1129.39	246
1138.54	260
1147.69	230
1156.82	270
1165.94	278
1175.05	268
1184.14	580
1193.23	464
1202.3	496
1211.36	302
1220.41	250
1229.45	342
1238.48	256
1247.5	238
1256.5	240
1265.49	268
1274.48	278
1283.45	364
1292.41	508
1301.36	1634
1310.29	1352
1319.22	580
1328.13	470
1337.04	374
1345.93	380
1354.81	360
1363.68	312
1372.54	556
1381.38	1030
1390.22	416
1399.05	288
1407.86	290
1416.66	314
1425.46	418
1434.24	472
1443.01	516
1451.77	418
1460.52	392
1469.25	378
1477.98	378
1486.7	328
1495.4	302
1504.1	282
1512.78	274
1521.45	286
1530.11	300
1538.76	276
1547.41	294
1556.03	294
1564.65	286
1573.26	358
1581.86	462
1590.45	814
1599.02	1366
1607.59	1308
1616.14	762
1624.69	412
1633.22	324
1641.75	276
1650.26	270
1658.76	248
1667.26	248
1675.74	228
1684.21	258
1692.67	260
1701.12	244
1709.56	254
1717.99	234
1726.41	218
1734.82	218
1743.22	230
1751.61	222
1759.99	214
1768.36	240
1776.71	214
1785.06	200
1793.4	216
1801.73	236
1810.04	218
1818.35	218
1826.65	214
1834.94	210
1843.21	234
1851.48	214
1859.74	214
1867.98	218
1876.22	220
1884.45	218
1892.67	228
1900.87	232
1909.07	238
1917.26	232
1925.43	210
1933.6	228
1941.76	220
1949.91	222
1958.05	202
1966.17	218
1974.29	222
1982.4	222
1990.5	220
1998.59	210
2006.67	228
2014.74	220
2022.8	216
2030.85	206
2038.89	240
2046.92	232
2054.94	222
2062.95	222
2070.96	216
2078.95	220
2086.93	230
2094.91	220
2102.87	208
2110.83	212
2118.77	216
2126.71	224
2134.63	218
2142.55	212
2150.46	212
2158.35	224
2166.24	206
2174.12	228
2181.99	210
2189.85	230
2197.7	200
2205.55	208
2213.38	208
2221.2	224
2229.02	226
2236.82	218
2244.62	236
2252.4	232
2260.18	210
2267.95	224
2275.71	204
2283.46	224
2291.2	226
2298.93	194
2306.65	220
2314.37	224
2322.07	218
2329.77	204
2337.45	218
2345.13	222
2352.8	228
2360.46	212
2368.11	218
2375.75	230
2383.38	250
2391.01	236
2398.62	234
2406.23	216
2413.82	226
2421.41	220
2428.99	228
2436.56	222
2444.12	244
2449.79	212

File: ps-ppo-7jan25-0,0000-map2_Y01_X09.txt
182.393	696
192.79	598
203.174	524
213.542	486
223.897	606
234.238	1342
244.566	890
254.878	508
265.178	320
275.463	298
285.734	390
295.992	640
306.236	466
316.467	382
326.684	362
336.887	394
347.075	364
357.251	348
367.413	324
377.562	312
387.697	260
397.819	240
407.926	286
418.02	336
428.101	238
438.169	194
448.223	182
458.264	194
468.291	246
478.306	414
488.307	462
498.294	228
508.269	286
518.23	308
528.177	402
538.113	806
548.034	456
557.942	552
567.838	2764
577.72	1540
587.589	608
597.446	456
607.289	258
617.119	230
626.936	266
636.741	334
646.533	240
656.313	214
666.078	174
675.831	180
685.571	176
695.299	172
705.014	194
714.716	258
724.406	202
734.082	214
743.746	276
753.398	304
763.037	216
772.664	212
782.278	224
791.879	194
801.467	200
811.044	202
820.608	240
830.16	828
839.699	420
849.226	284
858.741	238
868.243	198
877.731	194
887.209	192
896.674	180
906.128	176
915.569	180
924.997	198
934.414	194
943.818	264
953.211	558
962.59	920
971.958	454
981.314	262
990.659	244
999.99	204
1009.31	210
1018.62	236
1027.91	272
1037.2	278
1046.47	228
1055.73	210
1064.98	198
1074.22	190
1083.44	218
1092.65	212
1101.86	252
1111.05	858
1120.22	378
1129.39	274
1138.54	266
1147.69	242
1156.82	246
1165.94	270
1175.05	298
1184.14	566
1193.23	448
1202.3	508
1211.36	316
1220.41	268
1229.45	358
1238.48	284
1247.5	226
1256.5	236
1265.49	248
1274.48	282
1283.45	394
1292.41	516
1301.36	1604
1310.29	1328
1319.22	558
1328.13	472
1337.04	362
1345.93	386
1354.81	380
1363.68	344
1372.54	540
1381.38	1054
1390.22	410
1399.05	284
1407.86	302
1416.66	360
1425.46	454
1434.24	478
1443.01	496
1451.77	404
1460.52	376
1469.25	370
1477.98	374
1486.7	326
1495.4	286
1504.1	290
1512.78	286
1521.45	282
1530.11	282
1538.76	310
1547.41	272
1556.03	304
1564.65	304
1573.26	326
1581.86	462
1590.45	828
1599.02	1354
1607.59	1308
1616.14	768
1624.69	392
1633.22	308
1641.75	250
1650.26	270
1658.76	250
1667.26	246
1675.74	238
1684.21	276
1692.67	266
1701.12	248
1709.56	258
1717.99	228
1726.41	226
1734.82	228
1743.22	232
1751.61	226
1759.99	224
1768.36	226
1776.71	214
1785.06	216
1793.4	230
1801.73	238
1810.04	216
1818.35	208
1826.65	212
1834.94	220
1843.21	208
1851.48	222
1859.74	216
1867.98	226
1876.22	226
1884.45	210
1892.67	222
1900.87	236
1909.07	234
1917.26	222
1925.43	228
1933.6	234
1941.76	220
1949.91	224
1958.05	218
1966.17	214
1974.29	224
1982.4	230
1990.5	196
1998.59	234
2006.67	226
2014.74	212
2022.8	218
2030.85	208
2038.89	208
2046.92	220
2054.94	216
2062.95	214
2070.96	228
2078.95	226
2086.93	206
2094.91	222
2102.87	210
2110.83	218
2118.77	214
2126.71	236
2134.63	230
2142.55	206
2150.46	218
2158.35	210
2166.24	216
2174.12	230
2181.99	212
2189.85	216
2197.7	214
2205.55	202
2213.38	198
2221.2	208
2229.02	222
2236.82	218
2244.62	188
2252.4	230
2260.18	224
2267.95	220
2275.71	214
2283.46	218
2291.2	218
2298.93	222
2306.65	218
2314.37	220
2322.07	222
2329.77	232
2337.45	222
2345.13	218
2352.8	202
2360.46	218
2368.11	238
2375.75	232
2383.38	220
2391.01	222
2398.62	242
2406.23	206
2413.82	210
2421.41	218
2428.99	216
2436.56	200
2444.12	212
2449.79	222