Folder: NRC_SU25_Spectral_Classification/Mixture_Classification/Jesse_Dataset_v2/Pure Raman/Polypropylene oxide/785nm (part 7)

File: ps-ppo-6jan25-0,0000-map2_Y09_X05.txt
204.377	346
211.048	300
217.712	310
224.369	442
231.019	824
237.661	842
244.297	594
250.924	376
257.546	244
264.16	200
270.766	164
277.365	170
283.958	214
290.543	330
297.121	408
303.693	284
310.256	242
316.813	210
323.362	210
329.905	222
336.441	234
342.969	204
349.491	200
356.006	196
362.513	168
369.014	184
375.508	172
381.994	144
388.473	136
394.947	122
401.412	128
407.871	148
414.323	196
420.768	150
427.206	104
433.637	88
440.062	88
446.479	78
452.89	76
459.293	70
465.691	100
472.081	142
478.463	212
484.84	272
491.21	152
497.573	102
503.929	94
510.279	146
516.621	154
522.957	154
529.287	214
535.609	376
541.925	386
548.234	200
554.536	192
560.832	352
567.12	1258
573.403	1792
579.679	464
585.948	292
592.211	236
598.466	194
604.715	114
610.958	78
617.194	82
623.424	106
629.647	132
635.864	144
642.074	116
648.276	98
654.473	68
660.664	72
666.847	58
673.025	62
679.195	52
685.36	56
691.517	62
697.669	54
703.814	54
709.953	74
716.085	90
722.21	72
728.33	72
734.443	74
740.549	90
746.65	130
752.743	114
758.831	84
764.912	68
770.986	62
777.055	66
783.117	74
789.173	64
795.222	58
801.265	68
807.302	68
813.333	60
819.357	70
825.376	136
831.387	456
837.392	224
843.392	98
849.386	88
855.372	88
861.353	80
867.328	64
873.296	62
879.258	58
885.214	56
891.164	58
897.108	56
903.046	50
908.977	54
914.903	52
920.822	52
926.735	56
932.643	62
938.543	66
944.439	80
950.328	140
956.21	278
962.088	326
967.958	202
973.824	118
979.682	84
985.534	72
991.382	74
997.222	62
1003.06	56
1008.89	60
1014.71	66
1020.53	70
1026.34	84
1032.14	94
1037.94	80
1043.73	76
1049.52	64
1055.3	66
1061.08	60
1066.85	56
1072.61	60
1078.37	56
1084.12	66
1089.87	66
1095.61	70
1101.34	74
1107.07	134
1112.8	326
1118.51	152
1124.22	88
1129.93	78
1135.63	76
1141.32	80
1147.01	72
1152.69	74
1158.37	86
1164.04	86
1169.71	82
1175.37	88
1181.02	128
1186.67	222
1192.31	146
1197.95	144
1203.58	162
1209.2	120
1214.82	80
1220.44	88
1226.05	102
1231.65	124
1237.25	96
1242.84	74
1248.42	82
1254	70
1259.58	80
1265.15	88
1270.71	82
1276.27	102
1281.82	122
1287.37	146
1292.91	160
1298.45	312
1303.98	654
1309.5	450
1315.02	242
1320.53	192
1326.04	162
1331.54	154
1337.04	138
1342.53	134
1348.02	164
1353.5	146
1358.98	142
1364.45	132
1369.91	162
1375.37	316
1380.82	386
1386.27	238
1391.71	140
1397.15	124
1402.58	128
1408.01	134
1413.43	138
1418.85	160
1424.26	150
1429.66	174
1435.06	184
1440.46	198
1445.85	182
1451.23	154
1456.61	138
1461.98	138
1467.35	136
1472.71	142
1478.07	136
1483.42	116
1488.77	118
1494.11	104
1499.45	104
1504.78	106
1510.11	106
1515.43	94
1520.74	96
1526.05	110
1531.36	100
1536.66	100
1541.95	102
1547.24	100
1552.52	98
1557.8	98
1563.08	102
1568.35	108
1573.61	134
1578.87	128
1584.12	162
1589.37	212
1594.61	288
1599.85	398
1605.08	412
1610.31	318
1615.53	224
1620.75	152
1625.96	114
1631.17	100
1636.37	102
1641.57	92
1646.76	90
1651.95	82
1657.13	80
1662.31	86
1667.48	76
1672.65	70
1677.81	70
1682.97	72
1688.12	80
1693.27	74
1698.41	74
1702.26	72

File: ps-ppo-6jan25-0,0000-map2_Y09_X08.txt
204.377	368
211.048	328
217.712	318
224.369	450
231.019	838
237.661	852
244.297	596
250.924	372
257.546	254
264.16	192
270.766	174
277.365	182
283.958	220
290.543	364
297.121	418
303.693	304
310.256	258
316.813	212
323.362	218
329.905	228
336.441	270
342.969	206
349.491	204
356.006	198
362.513	178
369.014	180
375.508	176
381.994	138
388.473	124
394.947	120
401.412	132
407.871	142
414.323	206
420.768	140
427.206	116
433.637	94
440.062	80
446.479	76
452.89	74
459.293	86
465.691	106
472.081	144
478.463	226
484.84	290
491.21	170
497.573	106
503.929	92
510.279	148
516.621	162
522.957	142
529.287	228
535.609	388
541.925	408
548.234	198
554.536	204
560.832	368
567.12	1400
573.403	1876
579.679	480
585.948	312
592.211	252
598.466	200
604.715	102
610.958	84
617.194	90
623.424	102
629.647	126
635.864	142
642.074	128
648.276	98
654.473	78
660.664	72
666.847	64
673.025	54
679.195	58
685.36	60
691.517	56
697.669	50
703.814	60
709.953	78
716.085	94
722.21	70
728.33	74
734.443	80
740.549	86
746.65	130
752.743	116
758.831	92
764.912	62
770.986	68
777.055	74
783.117	86
789.173	68
795.222	64
801.265	66
807.302	78
813.333	68
819.357	78
825.376	122
831.387	468
837.392	226
843.392	102
849.386	94
855.372	78
861.353	78
867.328	74
873.296	64
879.258	62
885.214	62
891.164	60
897.108	52
903.046	50
908.977	54
914.903	58
920.822	56
926.735	56
932.643	64
938.543	64
944.439	86
950.328	148
956.21	280
962.088	354
967.958	216
973.824	120
979.682	82
985.534	72
991.382	68
997.222	64
1003.06	56
1008.89	58
1014.71	76
1020.53	76
1026.34	82
1032.14	92
1037.94	92
1043.73	80
1049.52	70
1055.3	72
1061.08	66
1066.85	56
1072.61	64
1078.37	62
1084.12	66
1089.87	62
1095.61	66
1101.34	70
1107.07	132
1112.8	326
1118.51	154
1124.22	98
1129.93	90
1135.63	84
1141.32	80
1147.01	78
1152.69	68
1158.37	84
1164.04	82
1169.71	80
1175.37	96
1181.02	126
1186.67	224
1192.31	160
1197.95	152
1203.58	176
1209.2	122
1214.82	80
1220.44	92
1226.05	106
1231.65	124
1237.25	98
1242.84	84
1248.42	92
1254	86
1259.58	88
1265.15	94
1270.71	96
1276.27	96
1281.82	118
1287.37	144
1292.91	178
1298.45	350
1303.98	742
1309.5	514
1315.02	260
1320.53	188
1326.04	166
1331.54	156
1337.04	136
1342.53	130
1348.02	158
1353.5	152
1358.98	138
1364.45	128
1369.91	148
1375.37	326
1380.82	406
1386.27	240
1391.71	142
1397.15	136
1402.58	128
1408.01	116
1413.43	142
1418.85	140
1424.26	152
1429.66	172
1435.06	182
1440.46	210
1445.85	180
1451.23	160
1456.61	150
1461.98	148
1467.35	150
1472.71	142
1478.07	136
1483.42	130
1488.77	116
1494.11	118
1499.45	108
1504.78	104
1510.11	110
1515.43	102
1520.74	92
1526.05	102
1531.36	100
1536.66	106
1541.95	100
1547.24	102
1552.52	108
1557.8	96
1563.08	102
1568.35	110
1573.61	120
1578.87	142
1584.12	172
1589.37	222
1594.61	322
1599.85	440
1605.08	408
1610.31	344
1615.53	226
1620.75	156
1625.96	104
1631.17	100
1636.37	90
1641.57	86
1646.76	78
1651.95	84
1657.13	82
1662.31	82
1667.48	84
1672.65	70
1677.81	72
1682.97	66
1688.12	78
1693.27	80
1698.41	70
1702.26	70

File: ps-ppo-6jan25-0,0000-map2_Y09_X10.txt
204.377	362
211.048	318
217.712	338
224.369	470
231.019	858
237.661	878
244.297	598
250.924	388
257.546	246
264.16	196
270.766	184
277.365	178
283.958	218
290.543	380
297.121	436
303.693	312
310.256	254
316.813	216
323.362	220
329.905	234
336.441	248
342.969	208
349.491	194
356.006	214
362.513	194
369.014	190
375.508	186
381.994	142
388.473	128
394.947	130
401.412	120
407.871	158
414.323	208
420.768	160
427.206	120
433.637	92
440.062	90
446.479	74
452.89	74
459.293	86
465.691	92
472.081	146
478.463	218
484.84	290
491.21	174
497.573	106
503.929	100
510.279	152
516.621	162
522.957	154
529.287	214
535.609	406
541.925	414
548.234	216
554.536	202
560.832	392
567.12	1422
573.403	1890
579.679	496
585.948	314
592.211	250
598.466	198
604.715	120
610.958	84
617.194	86
623.424	114
629.647	140
635.864	158
642.074	118
648.276	102
654.473	88
660.664	76
666.847	64
673.025	58
679.195	60
685.36	56
691.517	60
697.669	60
703.814	58
709.953	88
716.085	90
722.21	82
728.33	78
734.443	76
740.549	90
746.65	126
752.743	120
758.831	84
764.912	68
770.986	70
777.055	72
783.117	76
789.173	72
795.222	66
801.265	66
807.302	74
813.333	74
819.357	82
825.376	124
831.387	490
837.392	230
843.392	98
849.386	96
855.372	96
861.353	76
867.328	70
873.296	64
879.258	68
885.214	60
891.164	58
897.108	56
903.046	56
908.977	62
914.903	56
920.822	60
926.735	62
932.643	70
938.543	72
944.439	94
950.328	154
956.21	300
962.088	356
967.958	218
973.824	132
979.682	82
985.534	68
991.382	78
997.222	62
1003.06	60
1008.89	60
1014.71	66
1020.53	74
1026.34	76
1032.14	96
1037.94	96
1043.73	84
1049.52	74
1055.3	64
1061.08	66
1066.85	64
1072.61	68
1078.37	64
1084.12	66
1089.87	64
1095.61	64
1101.34	84
1107.07	136
1112.8	346
1118.51	152
1124.22	98
1129.93	86
1135.63	80
1141.32	84
1147.01	66
1152.69	70
1158.37	78
1164.04	90
1169.71	86
1175.37	92
1181.02	138
1186.67	238
1192.31	162
1197.95	160
1203.58	164
1209.2	124
1214.82	92
1220.44	96
1226.05	100
1231.65	130
1237.25	98
1242.84	92
1248.42	84
1254	84
1259.58	94
1265.15	84
1270.71	92
1276.27	114
1281.82	128
1287.37	148
1292.91	184
1298.45	322
1303.98	744
1309.5	502
1315.02	242
1320.53	182
1326.04	176
1331.54	170
1337.04	140
1342.53	142
1348.02	152
1353.5	164
1358.98	138
1364.45	150
1369.91	168
1375.37	320
1380.82	416
1386.27	260
1391.71	162
1397.15	132
1402.58	132
1408.01	146
1413.43	134
1418.85	158
1424.26	166
1429.66	184
1435.06	198
1440.46	198
1445.85	192
1451.23	166
1456.61	150
1461.98	150
1467.35	142
1472.71	146
1478.07	136
1483.42	134
1488.77	112
1494.11	114
1499.45	120
1504.78	106
1510.11	104
1515.43	108
1520.74	110
1526.05	92
1531.36	102
1536.66	106
1541.95	102
1547.24	106
1552.52	112
1557.8	112
1563.08	116
1568.35	118
1573.61	118
1578.87	130
1584.12	178
1589.37	226
1594.61	330
1599.85	440
1605.08	434
1610.31	336
1615.53	252
1620.75	156
1625.96	132
1631.17	104
1636.37	88
1641.57	102
1646.76	76
1651.95	96
1657.13	78
1662.31	78
1667.48	78
1672.65	84
1677.81	82
1682.97	82
1688.12	76
1693.27	78
1698.41	84
1702.26	72

File: ps-ppo-6jan25-0,0000-map2_Y10_X00.txt
204.377	366
211.048	350
217.712	334
224.369	466
231.019	842
237.661	886
244.297	622
250.924	388
257.546	270
264.16	200
270.766	166
277.365	182
283.958	234
290.543	356
297.121	408
303.693	314
310.256	256
316.813	212
323.362	232
329.905	238
336.441	238
342.969	202
349.491	202
356.006	208
362.513	186
369.014	184
375.508	180
381.994	150
388.473	130
394.947	126
401.412	130
407.871	146
414.323	210
420.768	158
427.206	118
433.637	102
440.062	88
446.479	82
452.89	78
459.293	80
465.691	112
472.081	138
478.463	212
484.84	264
491.21	186
497.573	118
503.929	96
510.279	162
516.621	162
522.957	152
529.287	236
535.609	390
541.925	392
548.234	216
554.536	206
560.832	388
567.12	1400
573.403	1912
579.679	460
585.948	324
592.211	258
598.466	186
604.715	104
610.958	90
617.194	88
623.424	108
629.647	134
635.864	156
642.074	122
648.276	90
654.473	86
660.664	70
666.847	64
673.025	60
679.195	62
685.36	62
691.517	60
697.669	60
703.814	68
709.953	70
716.085	92
722.21	78
728.33	78
734.443	80
740.549	78
746.65	136
752.743	112
758.831	90
764.912	68
770.986	68
777.055	74
783.117	82
789.173	64
795.222	74
801.265	70
807.302	74
813.333	66
819.357	86
825.376	132
831.387	466
837.392	230
843.392	100
849.386	98
855.372	88
861.353	74
867.328	68
873.296	64
879.258	62
885.214	60
891.164	52
897.108	58
903.046	56
908.977	60
914.903	56
920.822	60
926.735	52
932.643	60
938.543	72
944.439	90
950.328	148
956.21	280
962.088	364
967.958	218
973.824	132
979.682	84
985.534	72
991.382	76
997.222	60
1003.06	60
1008.89	64
1014.71	62
1020.53	72
1026.34	86
1032.14	106
1037.94	100
1043.73	86
1049.52	68
1055.3	68
1061.08	64
1066.85	60
1072.61	60
1078.37	58
1084.12	58
1089.87	72
1095.61	72
1101.34	80
1107.07	134
1112.8	328
1118.51	162
1124.22	92
1129.93	86
1135.63	86
1141.32	88
1147.01	76
1152.69	72
1158.37	90
1164.04	104
1169.71	86
1175.37	94
1181.02	144
1186.67	230
1192.31	150
1197.95	154
1203.58	178
1209.2	132
1214.82	84
1220.44	92
1226.05	106
1231.65	134
1237.25	102
1242.84	88
1248.42	86
1254	84
1259.58	94
1265.15	92
1270.71	80
1276.27	104
1281.82	124
1287.37	154
1292.91	188
1298.45	324
1303.98	722
1309.5	474
1315.02	254
1320.53	204
1326.04	176
1331.54	170
1337.04	132
1342.53	154
1348.02	170
1353.5	150
1358.98	140
1364.45	156
1369.91	180
1375.37	320
1380.82	424
1386.27	274
1391.71	154
1397.15	140
1402.58	128
1408.01	120
1413.43	140
1418.85	146
1424.26	174
1429.66	186
1435.06	198
1440.46	212
1445.85	196
1451.23	166
1456.61	158
1461.98	146
1467.35	146
1472.71	148
1478.07	146
1483.42	142
1488.77	124
1494.11	122
1499.45	112
1504.78	106
1510.11	92
1515.43	104
1520.74	108
1526.05	112
1531.36	100
1536.66	104
1541.95	108
1547.24	106
1552.52	102
1557.8	104
1563.08	114
1568.35	112
1573.61	118
1578.87	136
1584.12	172
1589.37	230
1594.61	314
1599.85	436
1605.08	430
1610.31	346
1615.53	256
1620.75	162
1625.96	124
1631.17	102
1636.37	96
1641.57	92
1646.76	76
1651.95	86
1657.13	76
1662.31	78
1667.48	74
1672.65	82
1677.81	76
1682.97	70
1688.12	86
1693.27	86
1698.41	84
1702.26	80

File: ps-ppo-6jan25-0,0000-map2_Y10_X01.txt
204.377	338
211.048	306
217.712	308
224.369	428
231.019	812
237.661	810
244.297	578
250.924	352
257.546	250
264.16	198
270.766	164
277.365	172
283.958	210
290.543	330
297.121	376
303.693	278
310.256	238
316.813	226
323.362	218
329.905	228
336.441	216
342.969	198
349.491	192
356.006	206
362.513	166
369.014	166
375.508	164
381.994	132
388.473	122
394.947	112
401.412	120
407.871	146
414.323	198
420.768	150
427.206	112
433.637	86
440.062	80
446.479	76
452.89	80
459.293	78
465.691	84
472.081	134
478.463	196
484.84	270
491.21	180
497.573	104
503.929	88
510.279	142
516.621	162
522.957	144
529.287	204
535.609	364
541.925	354
548.234	200
554.536	194
560.832	358
567.12	1294
573.403	1718
579.679	430
585.948	296
592.211	230
598.466	186
604.715	100
610.958	86
617.194	84
623.424	94
629.647	120
635.864	134
642.074	116
648.276	96
654.473	68
660.664	70
666.847	60
673.025	56
679.195	54
685.36	58
691.517	54
697.669	54
703.814	66
709.953	80
716.085	88
722.21	74
728.33	76
734.443	74
740.549	76
746.65	128
752.743	112
758.831	84
764.912	66
770.986	64
777.055	72
783.117	66
789.173	56
795.222	64
801.265	60
807.302	66
813.333	66
819.357	76
825.376	126
831.387	432
837.392	230
843.392	92
849.386	88
855.372	82
861.353	72
867.328	70
873.296	60
879.258	56
885.214	58
891.164	54
897.108	50
903.046	58
908.977	48
914.903	52
920.822	58
926.735	56
932.643	54
938.543	72
944.439	80
950.328	128
956.21	266
962.088	334
967.958	208
973.824	122
979.682	78
985.534	70
991.382	70
997.222	60
1003.06	66
1008.89	60
1014.71	62
1020.53	76
1026.34	70
1032.14	94
1037.94	88
1043.73	82
1049.52	64
1055.3	70
1061.08	62
1066.85	62
1072.61	58
1078.37	60
1084.12	62
1089.87	60
1095.61	68
1101.34	68
1107.07	128
1112.8	312
1118.51	136
1124.22	100
1129.93	74
1135.63	76
1141.32	86
1147.01	68
1152.69	60
1158.37	82
1164.04	84
1169.71	80
1175.37	84
1181.02	140
1186.67	212
1192.31	154
1197.95	134
1203.58	160
1209.2	110
1214.82	90
1220.44	86
1226.05	108
1231.65	126
1237.25	82
1242.84	76
1248.42	82
1254	86
1259.58	90
1265.15	90
1270.71	80
1276.27	106
1281.82	106
1287.37	142
1292.91	166
1298.45	304
1303.98	680
1309.5	466
1315.02	242
1320.53	174
1326.04	166
1331.54	148
1337.04	124
1342.53	136
1348.02	146
1353.5	142
1358.98	132
1364.45	140
1369.91	162
1375.37	294
1380.82	350
1386.27	246
1391.71	144
1397.15	110
1402.58	126
1408.01	118
1413.43	124
1418.85	142
1424.26	164
1429.66	166
1435.06	172
1440.46	194
1445.85	180
1451.23	158
1456.61	136
1461.98	136
1467.35	132
1472.71	128
1478.07	124
1483.42	130
1488.77	118
1494.11	98
1499.45	96
1504.78	104
1510.11	102
1515.43	100
1520.74	90
1526.05	114
1531.36	78
1536.66	94
1541.95	94
1547.24	102
1552.52	92
1557.8	98
1563.08	106
1568.35	98
1573.61	106
1578.87	126
1584.12	162
1589.37	218
1594.61	300
1599.85	418
1605.08	394
1610.31	314
1615.53	214
1620.75	148
1625.96	122
1631.17	106
1636.37	80
1641.57	82
1646.76	72
1651.95	76
1657.13	82
1662.31	72
1667.48	72
1672.65	76
1677.81	72
1682.97	70
1688.12	72
1693.27	80
1698.41	70
1702.26	64

File: ps-ppo-6jan25-0,0000-map2_Y10_X07.txt
204.377	364
211.048	304
217.712	310
224.369	426
231.019	802
237.661	756
244.297	550
250.924	360
257.546	238
264.16	186
270.766	160
277.365	174
283.958	210
290.543	340
297.121	382
303.693	274
310.256	224
316.813	214
323.362	212
329.905	216
336.441	238
342.969	190
349.491	186
356.006	196
362.513	178
369.014	178
375.508	166
381.994	132
388.473	128
394.947	116
401.412	114
407.871	132
414.323	188
420.768	142
427.206	110
433.637	86
440.062	78
446.479	72
452.89	72
459.293	74
465.691	94
472.081	134
478.463	210
484.84	264
491.21	150
497.573	110
503.929	94
510.279	138
516.621	150
522.957	150
529.287	206
535.609	374
541.925	356
548.234	204
554.536	190
560.832	366
567.12	1310
573.403	1704
579.679	438
585.948	296
592.211	226
598.466	174
604.715	108
610.958	90
617.194	78
623.424	96
629.647	124
635.864	132
642.074	116
648.276	108
654.473	80
660.664	66
666.847	58
673.025	54
679.195	58
685.36	56
691.517	56
697.669	60
703.814	56
709.953	64
716.085	98
722.21	70
728.33	66
734.443	76
740.549	86
746.65	128
752.743	112
758.831	74
764.912	64
770.986	68
777.055	68
783.117	66
789.173	64
795.222	58
801.265	64
807.302	60
813.333	70
819.357	78
825.376	122
831.387	416
837.392	218
843.392	100
849.386	82
855.372	86
861.353	70
867.328	62
873.296	60
879.258	58
885.214	56
891.164	58
897.108	56
903.046	54
908.977	52
914.903	52
920.822	54
926.735	60
932.643	60
938.543	66
944.439	90
950.328	140
956.21	280
962.088	312
967.958	210
973.824	132
979.682	78
985.534	74
991.382	76
997.222	54
1003.06	62
1008.89	58
1014.71	66
1020.53	64
1026.34	84
1032.14	94
1037.94	86
1043.73	76
1049.52	74
1055.3	62
1061.08	62
1066.85	62
1072.61	62
1078.37	62
1084.12	62
1089.87	68
1095.61	62
1101.34	78
1107.07	122
1112.8	322
1118.51	130
1124.22	92
1129.93	82
1135.63	82
1141.32	88
1147.01	66
1152.69	74
1158.37	86
1164.04	86
1169.71	84
1175.37	86
1181.02	134
1186.67	218
1192.31	142
1197.95	150
1203.58	172
1209.2	124
1214.82	92
1220.44	86
1226.05	100
1231.65	130
1237.25	90
1242.84	80
1248.42	84
1254	74
1259.58	90
1265.15	92
1270.71	86
1276.27	96
1281.82	110
1287.37	140
1292.91	178
1298.45	294
1303.98	662
1309.5	448
1315.02	238
1320.53	184
1326.04	174
1331.54	154
1337.04	126
1342.53	140
1348.02	140
1353.5	150
1358.98	128
1364.45	136
1369.91	154
1375.37	316
1380.82	370
1386.27	234
1391.71	138
1397.15	122
1402.58	130
1408.01	132
1413.43	124
1418.85	146
1424.26	150
1429.66	176
1435.06	186
1440.46	192
1445.85	180
1451.23	164
1456.61	134
1461.98	148
1467.35	146
1472.71	146
1478.07	140
1483.42	134
1488.77	112
1494.11	112
1499.45	102
1504.78	92
1510.11	104
1515.43	104
1520.74	96
1526.05	100
1531.36	102
1536.66	94
1541.95	102
1547.24	94
1552.52	102
1557.8	104
1563.08	100
1568.35	112
1573.61	118
1578.87	132
1584.12	160
1589.37	210
1594.61	302
1599.85	388
1605.08	414
1610.31	290
1615.53	222
1620.75	134
1625.96	112
1631.17	96
1636.37	86
1641.57	90
1646.76	78
1651.95	86
1657.13	74
1662.31	74
1667.48	78
1672.65	70
1677.81	72
1682.97	74
1688.12	76
1693.27	76
1698.41	78
1702.26	66

File: ps-ppo-6jan25-0,0000-map2_Y10_X09.txt
204.377	376
211.048	316
217.712	322
224.369	470
231.019	888
237.661	878
244.297	606
250.924	388
257.546	260
264.16	200
270.766	168
277.365	184
283.958	222
290.543	380
297.121	436
303.693	312
310.256	258
316.813	232
323.362	222
329.905	254
336.441	236
342.969	212
349.491	196
356.006	212
362.513	182
369.014	190
375.508	180
381.994	140
388.473	112
394.947	124
401.412	132
407.871	164
414.323	210
420.768	156
427.206	110
433.637	96
440.062	84
446.479	78
452.89	80
459.293	74
465.691	100
472.081	164
478.463	222
484.84	288
491.21	168
497.573	110
503.929	92
510.279	168
516.621	166
522.957	162
529.287	228
535.609	394
541.925	414
548.234	216
554.536	208
560.832	398
567.12	1426
573.403	1890
579.679	504
585.948	310
592.211	248
598.466	198
604.715	112
610.958	90
617.194	86
623.424	108
629.647	134
635.864	144
642.074	128
648.276	100
654.473	82
660.664	70
666.847	66
673.025	70
679.195	60
685.36	64
691.517	58
697.669	50
703.814	58
709.953	80
716.085	92
722.21	78
728.33	76
734.443	80
740.549	84
746.65	140
752.743	112
758.831	88
764.912	68
770.986	68
777.055	78
783.117	78
789.173	72
795.222	62
801.265	60
807.302	68
813.333	72
819.357	86
825.376	130
831.387	480
837.392	236
843.392	90
849.386	90
855.372	84
861.353	82
867.328	72
873.296	60
879.258	66
885.214	62
891.164	54
897.108	54
903.046	56
908.977	56
914.903	56
920.822	56
926.735	60
932.643	66
938.543	76
944.439	88
950.328	144
956.21	282
962.088	344
967.958	222
973.824	120
979.682	88
985.534	72
991.382	72
997.222	68
1003.06	64
1008.89	58
1014.71	60
1020.53	76
1026.34	82
1032.14	94
1037.94	90
1043.73	78
1049.52	70
1055.3	62
1061.08	64
1066.85	62
1072.61	62
1078.37	66
1084.12	66
1089.87	60
1095.61	64
1101.34	78
1107.07	136
1112.8	342
1118.51	146
1124.22	102
1129.93	84
1135.63	88
1141.32	84
1147.01	66
1152.69	66
1158.37	88
1164.04	82
1169.71	80
1175.37	98
1181.02	142
1186.67	228
1192.31	162
1197.95	158
1203.58	162
1209.2	118
1214.82	84
1220.44	90
1226.05	108
1231.65	120
1237.25	98
1242.84	78
1248.42	88
1254	86
1259.58	86
1265.15	92
1270.71	86
1276.27	112
1281.82	116
1287.37	144
1292.91	192
1298.45	310
1303.98	714
1309.5	506
1315.02	254
1320.53	208
1326.04	174
1331.54	160
1337.04	138
1342.53	140
1348.02	162
1353.5	162
1358.98	152
1364.45	146
1369.91	182
1375.37	338
1380.82	402
1386.27	270
1391.71	138
1397.15	138
1402.58	132
1408.01	120
1413.43	142
1418.85	158
1424.26	156
1429.66	170
1435.06	186
1440.46	212
1445.85	196
1451.23	160
1456.61	158
1461.98	160
1467.35	138
1472.71	142
1478.07	150
1483.42	122
1488.77	124
1494.11	116
1499.45	108
1504.78	110
1510.11	116
1515.43	108
1520.74	102
1526.05	98
1531.36	108
1536.66	100
1541.95	102
1547.24	102
1552.52	102
1557.8	112
1563.08	112
1568.35	100
1573.61	130
1578.87	138
1584.12	164
1589.37	232
1594.61	332
1599.85	432
1605.08	448
1610.31	334
1615.53	244
1620.75	166
1625.96	122
1631.17	92
1636.37	94
1641.57	84
1646.76	90
1651.95	78
1657.13	84
1662.31	74
1667.48	80
1672.65	68
1677.81	76
1682.97	74
1688.12	78
1693.27	80
1698.41	78
1702.26	78

File: ps-ppo-6jan25-0,0000-map2_Y10_X10.txt
204.377	376
211.048	338
217.712	336
224.369	480
231.019	922
237.661	910
244.297	626
250.924	416
257.546	262
264.16	198
270.766	182
277.365	192
283.958	234
290.543	358
297.121	428
303.693	332
310.256	246
316.813	218
323.362	238
329.905	244
336.441	258
342.969	218
349.491	206
356.006	212
362.513	186
369.014	198
375.508	182
381.994	144
388.473	136
394.947	130
401.412	126
407.871	152
414.323	216
420.768	158
427.206	128
433.637	98
440.062	84
446.479	82
452.89	78
459.293	84
465.691	102
472.081	146
478.463	236
484.84	292
491.21	174
497.573	100
503.929	100
510.279	166
516.621	160
522.957	158
529.287	212
535.609	412
541.925	424
548.234	208
554.536	212
560.832	404
567.12	1450
573.403	1966
579.679	496
585.948	332
592.211	272
598.466	208
604.715	108
610.958	94
617.194	88
623.424	116
629.647	132
635.864	148
642.074	116
648.276	102
654.473	98
660.664	62
666.847	70
673.025	60
679.195	62
685.36	64
691.517	64
697.669	62
703.814	66
709.953	76
716.085	106
722.21	74
728.33	66
734.443	78
740.549	90
746.65	140
752.743	124
758.831	100
764.912	68
770.986	64
777.055	84
783.117	80
789.173	72
795.222	70
801.265	70
807.302	82
813.333	76
819.357	82
825.376	128
831.387	502
837.392	234
843.392	104
849.386	104
855.372	94
861.353	82
867.328	74
873.296	60
879.258	66
885.214	56
891.164	58
897.108	60
903.046	60
908.977	58
914.903	62
920.822	60
926.735	58
932.643	70
938.543	82
944.439	100
950.328	154
956.21	316
962.088	362
967.958	230
973.824	120
979.682	86
985.534	76
991.382	78
997.222	62
1003.06	62
1008.89	66
1014.71	66
1020.53	66
1026.34	86
1032.14	94
1037.94	92
1043.73	84
1049.52	72
1055.3	72
1061.08	66
1066.85	66
1072.61	66
1078.37	60
1084.12	60
1089.87	70
1095.61	66
1101.34	78
1107.07	156
1112.8	344
1118.51	136
1124.22	100
1129.93	88
1135.63	80
1141.32	90
1147.01	78
1152.69	74
1158.37	88
1164.04	96
1169.71	82
1175.37	100
1181.02	144
1186.67	244
1192.31	156
1197.95	164
1203.58	168
1209.2	124
1214.82	98
1220.44	90
1226.05	126
1231.65	130
1237.25	96
1242.84	82
1248.42	88
1254	86
1259.58	96
1265.15	98
1270.71	102
1276.27	102
1281.82	128
1287.37	152
1292.91	200
1298.45	346
1303.98	770
1309.5	498
1315.02	266
1320.53	190
1326.04	180
1331.54	170
1337.04	132
1342.53	156
1348.02	150
1353.5	160
1358.98	154
1364.45	146
1369.91	168
1375.37	332
1380.82	434
1386.27	254
1391.71	154
1397.15	136
1402.58	136
1408.01	136
1413.43	138
1418.85	150
1424.26	178
1429.66	204
1435.06	194
1440.46	214
1445.85	180
1451.23	170
1456.61	164
1461.98	152
1467.35	148
1472.71	144
1478.07	144
1483.42	132
1488.77	130
1494.11	112
1499.45	102
1504.78	114
1510.11	110
1515.43	116
1520.74	112
1526.05	112
1531.36	108
1536.66	112
1541.95	104
1547.24	108
1552.52	120
1557.8	104
1563.08	114
1568.35	126
1573.61	136
1578.87	150
1584.12	170
1589.37	234
1594.61	344
1599.85	456
1605.08	446
1610.31	350
1615.53	238
1620.75	160
1625.96	126
1631.17	110
1636.37	94
1641.57	88
1646.76	80
1651.95	82
1657.13	78
1662.31	76
1667.48	78
1672.65	84
1677.81	74
1682.97	84
1688.12	74
1693.27	80
1698.41	74
1702.26	82