Folder: NRC_SU25_Spectral_Classification/Mixture_Classification/Jesse_Dataset_v2/Pure Raman/Polypropylene oxide/785nm (part 5)

File: ps-ppo-6jan25-0,0000-map2_Y05_X05.txt
204.377	374
211.048	342
217.712	324
224.369	472
231.019	902
237.661	920
244.297	602
250.924	382
257.546	266
264.16	200
270.766	172
277.365	180
283.958	222
290.543	368
297.121	424
303.693	320
310.256	260
316.813	220
323.362	212
329.905	254
336.441	250
342.969	196
349.491	204
356.006	210
362.513	184
369.014	192
375.508	186
381.994	140
388.473	126
394.947	116
401.412	122
407.871	138
414.323	200
420.768	164
427.206	108
433.637	98
440.062	84
446.479	74
452.89	70
459.293	80
465.691	102
472.081	144
478.463	220
484.84	268
491.21	174
497.573	102
503.929	92
510.279	144
516.621	158
522.957	158
529.287	220
535.609	398
541.925	402
548.234	228
554.536	202
560.832	384
567.12	1434
573.403	1934
579.679	476
585.948	340
592.211	248
598.466	190
604.715	118
610.958	94
617.194	86
623.424	102
629.647	116
635.864	152
642.074	122
648.276	102
654.473	76
660.664	78
666.847	62
673.025	58
679.195	62
685.36	62
691.517	50
697.669	56
703.814	54
709.953	66
716.085	86
722.21	76
728.33	70
734.443	78
740.549	78
746.65	142
752.743	106
758.831	92
764.912	70
770.986	66
777.055	74
783.117	72
789.173	70
795.222	62
801.265	60
807.302	56
813.333	74
819.357	80
825.376	134
831.387	478
837.392	242
843.392	88
849.386	100
855.372	84
861.353	72
867.328	70
873.296	58
879.258	60
885.214	56
891.164	58
897.108	58
903.046	52
908.977	56
914.903	60
920.822	58
926.735	60
932.643	62
938.543	64
944.439	94
950.328	152
956.21	306
962.088	364
967.958	212
973.824	120
979.682	84
985.534	66
991.382	70
997.222	64
1003.06	58
1008.89	56
1014.71	62
1020.53	72
1026.34	76
1032.14	90
1037.94	84
1043.73	78
1049.52	68
1055.3	56
1061.08	60
1066.85	64
1072.61	64
1078.37	62
1084.12	58
1089.87	58
1095.61	66
1101.34	76
1107.07	148
1112.8	360
1118.51	144
1124.22	98
1129.93	82
1135.63	84
1141.32	84
1147.01	78
1152.69	66
1158.37	82
1164.04	96
1169.71	74
1175.37	102
1181.02	158
1186.67	230
1192.31	150
1197.95	150
1203.58	180
1209.2	122
1214.82	92
1220.44	94
1226.05	106
1231.65	120
1237.25	96
1242.84	72
1248.42	76
1254	90
1259.58	74
1265.15	96
1270.71	102
1276.27	100
1281.82	130
1287.37	142
1292.91	194
1298.45	350
1303.98	734
1309.5	516
1315.02	244
1320.53	198
1326.04	180
1331.54	164
1337.04	148
1342.53	144
1348.02	164
1353.5	160
1358.98	142
1364.45	154
1369.91	166
1375.37	330
1380.82	410
1386.27	280
1391.71	154
1397.15	132
1402.58	126
1408.01	136
1413.43	136
1418.85	150
1424.26	166
1429.66	170
1435.06	198
1440.46	214
1445.85	194
1451.23	168
1456.61	152
1461.98	152
1467.35	136
1472.71	148
1478.07	134
1483.42	128
1488.77	114
1494.11	112
1499.45	118
1504.78	110
1510.11	116
1515.43	106
1520.74	106
1526.05	102
1531.36	100
1536.66	102
1541.95	104
1547.24	106
1552.52	102
1557.8	108
1563.08	98
1568.35	110
1573.61	128
1578.87	138
1584.12	156
1589.37	240
1594.61	316
1599.85	428
1605.08	446
1610.31	362
1615.53	234
1620.75	170
1625.96	126
1631.17	102
1636.37	94
1641.57	86
1646.76	76
1651.95	92
1657.13	84
1662.31	84
1667.48	78
1672.65	84
1677.81	80
1682.97	72
1688.12	86
1693.27	78
1698.41	76
1702.26	80

File: ps-ppo-6jan25-0,0000-map2_Y05_X07.txt
204.377	350
211.048	326
217.712	328
224.369	476
231.019	892
237.661	838
244.297	606
250.924	406
257.546	260
264.16	196
270.766	186
277.365	176
283.958	232
290.543	352
297.121	408
303.693	304
310.256	260
316.813	208
323.362	222
329.905	240
336.441	252
342.969	216
349.491	180
356.006	194
362.513	194
369.014	170
375.508	200
381.994	146
388.473	128
394.947	104
401.412	122
407.871	154
414.323	206
420.768	154
427.206	120
433.637	92
440.062	86
446.479	78
452.89	76
459.293	78
465.691	100
472.081	148
478.463	222
484.84	284
491.21	166
497.573	102
503.929	94
510.279	156
516.621	164
522.957	150
529.287	214
535.609	392
541.925	398
548.234	214
554.536	204
560.832	370
567.12	1420
573.403	1850
579.679	480
585.948	298
592.211	254
598.466	194
604.715	120
610.958	80
617.194	90
623.424	102
629.647	134
635.864	144
642.074	116
648.276	98
654.473	82
660.664	70
666.847	64
673.025	64
679.195	56
685.36	62
691.517	60
697.669	62
703.814	64
709.953	82
716.085	92
722.21	72
728.33	66
734.443	80
740.549	84
746.65	140
752.743	116
758.831	84
764.912	72
770.986	68
777.055	66
783.117	76
789.173	68
795.222	60
801.265	64
807.302	72
813.333	68
819.357	80
825.376	124
831.387	460
837.392	240
843.392	96
849.386	86
855.372	94
861.353	78
867.328	68
873.296	62
879.258	60
885.214	58
891.164	56
897.108	50
903.046	52
908.977	60
914.903	50
920.822	56
926.735	58
932.643	62
938.543	68
944.439	88
950.328	146
956.21	294
962.088	352
967.958	220
973.824	130
979.682	84
985.534	62
991.382	76
997.222	58
1003.06	56
1008.89	54
1014.71	66
1020.53	74
1026.34	82
1032.14	98
1037.94	96
1043.73	90
1049.52	72
1055.3	60
1061.08	58
1066.85	60
1072.61	60
1078.37	56
1084.12	66
1089.87	72
1095.61	66
1101.34	80
1107.07	140
1112.8	340
1118.51	152
1124.22	88
1129.93	84
1135.63	84
1141.32	84
1147.01	72
1152.69	66
1158.37	78
1164.04	80
1169.71	84
1175.37	94
1181.02	138
1186.67	232
1192.31	156
1197.95	142
1203.58	170
1209.2	124
1214.82	92
1220.44	84
1226.05	112
1231.65	130
1237.25	96
1242.84	80
1248.42	80
1254	78
1259.58	82
1265.15	98
1270.71	92
1276.27	98
1281.82	116
1287.37	136
1292.91	176
1298.45	338
1303.98	770
1309.5	496
1315.02	250
1320.53	186
1326.04	168
1331.54	166
1337.04	146
1342.53	144
1348.02	162
1353.5	142
1358.98	144
1364.45	144
1369.91	168
1375.37	316
1380.82	394
1386.27	276
1391.71	154
1397.15	132
1402.58	146
1408.01	122
1413.43	140
1418.85	160
1424.26	170
1429.66	172
1435.06	198
1440.46	202
1445.85	186
1451.23	162
1456.61	152
1461.98	152
1467.35	148
1472.71	134
1478.07	136
1483.42	136
1488.77	112
1494.11	122
1499.45	116
1504.78	108
1510.11	112
1515.43	110
1520.74	102
1526.05	98
1531.36	110
1536.66	106
1541.95	98
1547.24	96
1552.52	102
1557.8	108
1563.08	118
1568.35	108
1573.61	124
1578.87	140
1584.12	180
1589.37	220
1594.61	316
1599.85	430
1605.08	434
1610.31	328
1615.53	256
1620.75	158
1625.96	120
1631.17	106
1636.37	100
1641.57	90
1646.76	80
1651.95	84
1657.13	86
1662.31	78
1667.48	84
1672.65	74
1677.81	78
1682.97	76
1688.12	84
1693.27	74
1698.41	74
1702.26	70

File: ps-ppo-6jan25-0,0000-map2_Y05_X10.txt
204.377	392
211.048	348
217.712	336
224.369	476
231.019	932
237.661	894
244.297	656
250.924	422
257.546	262
264.16	208
270.766	192
277.365	192
283.958	224
290.543	396
297.121	472
303.693	338
310.256	276
316.813	240
323.362	238
329.905	252
336.441	258
342.969	222
349.491	208
356.006	216
362.513	202
369.014	198
375.508	192
381.994	156
388.473	126
394.947	122
401.412	120
407.871	164
414.323	216
420.768	178
427.206	134
433.637	98
440.062	84
446.479	82
452.89	84
459.293	84
465.691	100
472.081	146
478.463	218
484.84	296
491.21	190
497.573	118
503.929	100
510.279	160
516.621	172
522.957	158
529.287	224
535.609	430
541.925	424
548.234	220
554.536	228
560.832	392
567.12	1458
573.403	2068
579.679	514
585.948	350
592.211	282
598.466	220
604.715	104
610.958	96
617.194	102
623.424	110
629.647	138
635.864	148
642.074	142
648.276	108
654.473	86
660.664	78
666.847	64
673.025	62
679.195	62
685.36	62
691.517	62
697.669	56
703.814	68
709.953	80
716.085	102
722.21	78
728.33	76
734.443	84
740.549	100
746.65	130
752.743	120
758.831	92
764.912	70
770.986	68
777.055	82
783.117	76
789.173	70
795.222	68
801.265	68
807.302	80
813.333	76
819.357	80
825.376	138
831.387	488
837.392	248
843.392	110
849.386	94
855.372	84
861.353	78
867.328	66
873.296	58
879.258	62
885.214	58
891.164	60
897.108	66
903.046	58
908.977	54
914.903	56
920.822	62
926.735	66
932.643	60
938.543	70
944.439	90
950.328	158
956.21	284
962.088	390
967.958	228
973.824	134
979.682	80
985.534	74
991.382	80
997.222	66
1003.06	60
1008.89	72
1014.71	66
1020.53	70
1026.34	88
1032.14	100
1037.94	96
1043.73	86
1049.52	66
1055.3	66
1061.08	66
1066.85	66
1072.61	52
1078.37	58
1084.12	64
1089.87	66
1095.61	70
1101.34	76
1107.07	146
1112.8	364
1118.51	168
1124.22	108
1129.93	84
1135.63	92
1141.32	94
1147.01	76
1152.69	78
1158.37	82
1164.04	100
1169.71	90
1175.37	96
1181.02	144
1186.67	250
1192.31	172
1197.95	152
1203.58	170
1209.2	132
1214.82	98
1220.44	88
1226.05	108
1231.65	140
1237.25	96
1242.84	90
1248.42	90
1254	92
1259.58	84
1265.15	96
1270.71	98
1276.27	108
1281.82	126
1287.37	150
1292.91	180
1298.45	352
1303.98	770
1309.5	516
1315.02	258
1320.53	210
1326.04	170
1331.54	178
1337.04	160
1342.53	148
1348.02	150
1353.5	162
1358.98	146
1364.45	156
1369.91	198
1375.37	360
1380.82	454
1386.27	280
1391.71	162
1397.15	148
1402.58	142
1408.01	140
1413.43	144
1418.85	168
1424.26	186
1429.66	186
1435.06	194
1440.46	216
1445.85	186
1451.23	178
1456.61	162
1461.98	152
1467.35	156
1472.71	154
1478.07	156
1483.42	140
1488.77	134
1494.11	116
1499.45	116
1504.78	108
1510.11	104
1515.43	118
1520.74	106
1526.05	114
1531.36	102
1536.66	112
1541.95	108
1547.24	110
1552.52	114
1557.8	116
1563.08	110
1568.35	124
1573.61	134
1578.87	152
1584.12	182
1589.37	242
1594.61	342
1599.85	472
1605.08	486
1610.31	344
1615.53	256
1620.75	174
1625.96	138
1631.17	104
1636.37	100
1641.57	98
1646.76	92
1651.95	88
1657.13	86
1662.31	82
1667.48	82
1672.65	80
1677.81	80
1682.97	88
1688.12	84
1693.27	74
1698.41	86
1702.26	80

File: ps-ppo-6jan25-0,0000-map2_Y06_X01.txt
204.377	370
211.048	346
217.712	338
224.369	488
231.019	942
237.661	932
244.297	624
250.924	420
257.546	276
264.16	224
270.766	180
277.365	190
283.958	234
290.543	376
297.121	460
303.693	358
310.256	274
316.813	222
323.362	224
329.905	258
336.441	246
342.969	220
349.491	232
356.006	222
362.513	194
369.014	204
375.508	202
381.994	146
388.473	134
394.947	134
401.412	134
407.871	156
414.323	224
420.768	174
427.206	120
433.637	96
440.062	80
446.479	74
452.89	86
459.293	82
465.691	112
472.081	158
478.463	222
484.84	296
491.21	174
497.573	118
503.929	102
510.279	162
516.621	180
522.957	148
529.287	236
535.609	412
541.925	430
548.234	224
554.536	214
560.832	422
567.12	1458
573.403	2020
579.679	506
585.948	320
592.211	282
598.466	210
604.715	116
610.958	96
617.194	104
623.424	112
629.647	138
635.864	158
642.074	128
648.276	94
654.473	86
660.664	74
666.847	64
673.025	62
679.195	64
685.36	60
691.517	58
697.669	58
703.814	56
709.953	80
716.085	96
722.21	80
728.33	72
734.443	88
740.549	96
746.65	146
752.743	124
758.831	94
764.912	76
770.986	70
777.055	76
783.117	74
789.173	62
795.222	70
801.265	68
807.302	76
813.333	80
819.357	90
825.376	138
831.387	492
837.392	248
843.392	104
849.386	90
855.372	90
861.353	82
867.328	70
873.296	60
879.258	60
885.214	56
891.164	64
897.108	58
903.046	60
908.977	54
914.903	54
920.822	62
926.735	56
932.643	68
938.543	78
944.439	92
950.328	148
956.21	304
962.088	370
967.958	220
973.824	134
979.682	78
985.534	80
991.382	90
997.222	66
1003.06	68
1008.89	62
1014.71	68
1020.53	76
1026.34	84
1032.14	98
1037.94	102
1043.73	80
1049.52	80
1055.3	58
1061.08	58
1066.85	62
1072.61	64
1078.37	60
1084.12	64
1089.87	64
1095.61	72
1101.34	84
1107.07	138
1112.8	360
1118.51	158
1124.22	96
1129.93	98
1135.63	82
1141.32	86
1147.01	76
1152.69	76
1158.37	86
1164.04	104
1169.71	92
1175.37	98
1181.02	154
1186.67	246
1192.31	166
1197.95	158
1203.58	174
1209.2	128
1214.82	92
1220.44	82
1226.05	112
1231.65	134
1237.25	96
1242.84	92
1248.42	92
1254	80
1259.58	88
1265.15	102
1270.71	98
1276.27	98
1281.82	128
1287.37	152
1292.91	194
1298.45	376
1303.98	772
1309.5	538
1315.02	282
1320.53	196
1326.04	170
1331.54	190
1337.04	150
1342.53	144
1348.02	170
1353.5	160
1358.98	154
1364.45	142
1369.91	164
1375.37	348
1380.82	422
1386.27	268
1391.71	162
1397.15	140
1402.58	142
1408.01	136
1413.43	146
1418.85	158
1424.26	174
1429.66	172
1435.06	194
1440.46	214
1445.85	190
1451.23	176
1456.61	164
1461.98	166
1467.35	158
1472.71	138
1478.07	142
1483.42	128
1488.77	132
1494.11	114
1499.45	118
1504.78	116
1510.11	112
1515.43	112
1520.74	112
1526.05	112
1531.36	114
1536.66	106
1541.95	108
1547.24	104
1552.52	116
1557.8	116
1563.08	102
1568.35	110
1573.61	128
1578.87	146
1584.12	184
1589.37	236
1594.61	336
1599.85	452
1605.08	474
1610.31	390
1615.53	264
1620.75	160
1625.96	118
1631.17	114
1636.37	90
1641.57	96
1646.76	80
1651.95	88
1657.13	80
1662.31	90
1667.48	80
1672.65	76
1677.81	76
1682.97	80
1688.12	74
1693.27	90
1698.41	76
1702.26	78

File: ps-ppo-6jan25-0,0000-map2_Y06_X05.txt
204.377	378
211.048	336
217.712	330
224.369	478
231.019	850
237.661	866
244.297	606
250.924	420
257.546	256
264.16	196
270.766	190
277.365	170
283.958	236
290.543	338
297.121	416
303.693	330
310.256	254
316.813	222
323.362	238
329.905	254
336.441	240
342.969	208
349.491	196
356.006	218
362.513	190
369.014	184
375.508	184
381.994	142
388.473	128
394.947	120
401.412	112
407.871	150
414.323	206
420.768	166
427.206	118
433.637	96
440.062	86
446.479	72
452.89	74
459.293	76
465.691	100
472.081	154
478.463	192
484.84	288
491.21	170
497.573	106
503.929	98
510.279	160
516.621	154
522.957	142
529.287	216
535.609	400
541.925	408
548.234	196
554.536	204
560.832	364
567.12	1410
573.403	1924
579.679	490
585.948	312
592.211	260
598.466	190
604.715	112
610.958	90
617.194	96
623.424	106
629.647	128
635.864	146
642.074	126
648.276	92
654.473	86
660.664	72
666.847	58
673.025	58
679.195	54
685.36	54
691.517	58
697.669	54
703.814	64
709.953	70
716.085	94
722.21	70
728.33	76
734.443	78
740.549	90
746.65	136
752.743	112
758.831	88
764.912	64
770.986	68
777.055	76
783.117	76
789.173	72
795.222	62
801.265	60
807.302	76
813.333	66
819.357	86
825.376	122
831.387	476
837.392	226
843.392	96
849.386	94
855.372	86
861.353	70
867.328	62
873.296	56
879.258	54
885.214	54
891.164	56
897.108	54
903.046	58
908.977	54
914.903	48
920.822	52
926.735	58
932.643	60
938.543	74
944.439	88
950.328	148
956.21	290
962.088	358
967.958	222
973.824	138
979.682	90
985.534	74
991.382	68
997.222	64
1003.06	60
1008.89	66
1014.71	68
1020.53	78
1026.34	82
1032.14	94
1037.94	90
1043.73	80
1049.52	66
1055.3	72
1061.08	62
1066.85	48
1072.61	58
1078.37	60
1084.12	56
1089.87	56
1095.61	64
1101.34	74
1107.07	132
1112.8	346
1118.51	148
1124.22	96
1129.93	76
1135.63	84
1141.32	76
1147.01	66
1152.69	64
1158.37	88
1164.04	92
1169.71	80
1175.37	92
1181.02	142
1186.67	248
1192.31	170
1197.95	144
1203.58	176
1209.2	134
1214.82	84
1220.44	80
1226.05	120
1231.65	120
1237.25	96
1242.84	90
1248.42	86
1254	94
1259.58	82
1265.15	96
1270.71	74
1276.27	98
1281.82	128
1287.37	146
1292.91	178
1298.45	326
1303.98	742
1309.5	494
1315.02	264
1320.53	206
1326.04	178
1331.54	170
1337.04	142
1342.53	146
1348.02	158
1353.5	156
1358.98	144
1364.45	146
1369.91	170
1375.37	322
1380.82	418
1386.27	262
1391.71	154
1397.15	134
1402.58	130
1408.01	126
1413.43	134
1418.85	144
1424.26	188
1429.66	174
1435.06	202
1440.46	204
1445.85	192
1451.23	164
1456.61	164
1461.98	156
1467.35	148
1472.71	142
1478.07	142
1483.42	128
1488.77	120
1494.11	110
1499.45	100
1504.78	114
1510.11	112
1515.43	110
1520.74	108
1526.05	98
1531.36	98
1536.66	104
1541.95	94
1547.24	114
1552.52	98
1557.8	96
1563.08	108
1568.35	110
1573.61	116
1578.87	148
1584.12	166
1589.37	220
1594.61	342
1599.85	452
1605.08	434
1610.31	340
1615.53	250
1620.75	154
1625.96	114
1631.17	104
1636.37	98
1641.57	90
1646.76	84
1651.95	72
1657.13	80
1662.31	72
1667.48	78
1672.65	88
1677.81	80
1682.97	76
1688.12	84
1693.27	74
1698.41	76
1702.26	76

File: ps-ppo-6jan25-0,0000-map2_Y06_X07.txt
204.377	372
211.048	318
217.712	324
224.369	478
231.019	902
237.661	908
244.297	664
250.924	394
257.546	270
264.16	200
270.766	170
277.365	168
283.958	216
290.543	376
297.121	428
303.693	318
310.256	246
316.813	234
323.362	226
329.905	254
336.441	242
342.969	210
349.491	216
356.006	216
362.513	188
369.014	198
375.508	182
381.994	162
388.473	132
394.947	122
401.412	126
407.871	148
414.323	214
420.768	162
427.206	112
433.637	96
440.062	90
446.479	72
452.89	74
459.293	76
465.691	102
472.081	152
478.463	226
484.84	288
491.21	168
497.573	110
503.929	88
510.279	160
516.621	178
522.957	160
529.287	214
535.609	390
541.925	422
548.234	222
554.536	208
560.832	392
567.12	1452
573.403	1974
579.679	504
585.948	336
592.211	276
598.466	198
604.715	110
610.958	88
617.194	92
623.424	106
629.647	132
635.864	140
642.074	116
648.276	96
654.473	80
660.664	72
666.847	54
673.025	64
679.195	52
685.36	64
691.517	56
697.669	60
703.814	64
709.953	72
716.085	94
722.21	80
728.33	72
734.443	78
740.549	90
746.65	132
752.743	120
758.831	84
764.912	56
770.986	70
777.055	76
783.117	68
789.173	66
795.222	66
801.265	68
807.302	72
813.333	68
819.357	86
825.376	128
831.387	468
837.392	240
843.392	98
849.386	92
855.372	86
861.353	76
867.328	74
873.296	62
879.258	64
885.214	58
891.164	58
897.108	50
903.046	58
908.977	50
914.903	58
920.822	58
926.735	50
932.643	62
938.543	56
944.439	90
950.328	142
956.21	300
962.088	372
967.958	226
973.824	134
979.682	80
985.534	70
991.382	70
997.222	64
1003.06	58
1008.89	66
1014.71	66
1020.53	76
1026.34	84
1032.14	98
1037.94	92
1043.73	80
1049.52	62
1055.3	58
1061.08	62
1066.85	54
1072.61	62
1078.37	64
1084.12	72
1089.87	60
1095.61	70
1101.34	80
1107.07	144
1112.8	364
1118.51	152
1124.22	98
1129.93	84
1135.63	72
1141.32	84
1147.01	62
1152.69	70
1158.37	84
1164.04	88
1169.71	82
1175.37	98
1181.02	144
1186.67	236
1192.31	170
1197.95	154
1203.58	188
1209.2	132
1214.82	96
1220.44	86
1226.05	110
1231.65	128
1237.25	98
1242.84	86
1248.42	82
1254	94
1259.58	94
1265.15	92
1270.71	102
1276.27	108
1281.82	132
1287.37	154
1292.91	178
1298.45	344
1303.98	762
1309.5	502
1315.02	272
1320.53	204
1326.04	186
1331.54	160
1337.04	144
1342.53	146
1348.02	164
1353.5	152
1358.98	146
1364.45	152
1369.91	166
1375.37	346
1380.82	424
1386.27	274
1391.71	158
1397.15	154
1402.58	136
1408.01	118
1413.43	140
1418.85	152
1424.26	180
1429.66	180
1435.06	208
1440.46	210
1445.85	184
1451.23	164
1456.61	164
1461.98	158
1467.35	138
1472.71	146
1478.07	132
1483.42	132
1488.77	124
1494.11	116
1499.45	112
1504.78	128
1510.11	114
1515.43	116
1520.74	114
1526.05	104
1531.36	100
1536.66	110
1541.95	108
1547.24	102
1552.52	112
1557.8	110
1563.08	106
1568.35	118
1573.61	128
1578.87	128
1584.12	182
1589.37	236
1594.61	328
1599.85	450
1605.08	456
1610.31	370
1615.53	274
1620.75	170
1625.96	128
1631.17	114
1636.37	96
1641.57	96
1646.76	76
1651.95	82
1657.13	82
1662.31	72
1667.48	82
1672.65	76
1677.81	76
1682.97	82
1688.12	80
1693.27	78
1698.41	82
1702.26	80

File: ps-ppo-6jan25-0,0000-map2_Y06_X09.txt
204.377	388
211.048	336
217.712	334
224.369	484
231.019	888
237.661	908
244.297	656
250.924	404
257.546	270
264.16	218
270.766	166
277.365	190
283.958	238
290.543	364
297.121	436
303.693	328
310.256	252
316.813	218
323.362	234
329.905	264
336.441	260
342.969	212
349.491	204
356.006	226
362.513	204
369.014	190
375.508	198
381.994	150
388.473	136
394.947	126
401.412	122
407.871	158
414.323	214
420.768	164
427.206	120
433.637	96
440.062	84
446.479	80
452.89	84
459.293	88
465.691	100
472.081	154
478.463	220
484.84	296
491.21	166
497.573	114
503.929	98
510.279	162
516.621	176
522.957	152
529.287	236
535.609	422
541.925	410
548.234	216
554.536	208
560.832	404
567.12	1498
573.403	2008
579.679	514
585.948	314
592.211	278
598.466	208
604.715	112
610.958	96
617.194	104
623.424	108
629.647	132
635.864	146
642.074	134
648.276	106
654.473	88
660.664	74
666.847	62
673.025	64
679.195	58
685.36	68
691.517	58
697.669	58
703.814	66
709.953	82
716.085	94
722.21	76
728.33	66
734.443	88
740.549	82
746.65	144
752.743	114
758.831	98
764.912	60
770.986	70
777.055	68
783.117	84
789.173	70
795.222	66
801.265	62
807.302	70
813.333	70
819.357	86
825.376	140
831.387	506
837.392	250
843.392	96
849.386	100
855.372	96
861.353	76
867.328	74
873.296	62
879.258	62
885.214	58
891.164	54
897.108	58
903.046	56
908.977	58
914.903	54
920.822	52
926.735	60
932.643	62
938.543	72
944.439	94
950.328	154
956.21	298
962.088	370
967.958	226
973.824	146
979.682	88
985.534	76
991.382	68
997.222	64
1003.06	60
1008.89	66
1014.71	72
1020.53	78
1026.34	80
1032.14	98
1037.94	100
1043.73	76
1049.52	74
1055.3	64
1061.08	64
1066.85	66
1072.61	60
1078.37	62
1084.12	62
1089.87	64
1095.61	66
1101.34	80
1107.07	140
1112.8	372
1118.51	164
1124.22	92
1129.93	82
1135.63	76
1141.32	86
1147.01	76
1152.69	76
1158.37	86
1164.04	86
1169.71	90
1175.37	98
1181.02	142
1186.67	262
1192.31	166
1197.95	164
1203.58	174
1209.2	130
1214.82	94
1220.44	96
1226.05	114
1231.65	128
1237.25	106
1242.84	84
1248.42	90
1254	92
1259.58	98
1265.15	98
1270.71	100
1276.27	104
1281.82	132
1287.37	140
1292.91	200
1298.45	358
1303.98	808
1309.5	498
1315.02	268
1320.53	192
1326.04	172
1331.54	172
1337.04	152
1342.53	148
1348.02	160
1353.5	156
1358.98	152
1364.45	146
1369.91	180
1375.37	366
1380.82	426
1386.27	270
1391.71	160
1397.15	142
1402.58	126
1408.01	136
1413.43	140
1418.85	164
1424.26	184
1429.66	184
1435.06	202
1440.46	208
1445.85	206
1451.23	170
1456.61	172
1461.98	154
1467.35	156
1472.71	152
1478.07	148
1483.42	136
1488.77	120
1494.11	120
1499.45	106
1504.78	110
1510.11	110
1515.43	102
1520.74	110
1526.05	110
1531.36	110
1536.66	100
1541.95	112
1547.24	118
1552.52	112
1557.8	106
1563.08	96
1568.35	112
1573.61	120
1578.87	154
1584.12	180
1589.37	238
1594.61	348
1599.85	474
1605.08	438
1610.31	342
1615.53	258
1620.75	174
1625.96	128
1631.17	116
1636.37	102
1641.57	92
1646.76	86
1651.95	78
1657.13	78
1662.31	82
1667.48	72
1672.65	76
1677.81	74
1682.97	68
1688.12	80
1693.27	90
1698.41	80
1702.26	80

File: ps-ppo-6jan25-0,0000-map2_Y06_X10.txt
204.377	384
211.048	354
217.712	346
224.369	488
231.019	914
237.661	958
244.297	624
250.924	408
257.546	286
264.16	198
270.766	172
277.365	182
283.958	254
290.543	364
297.121	444
303.693	332
310.256	258
316.813	224
323.362	234
329.905	254
336.441	264
342.969	222
349.491	216
356.006	228
362.513	204
369.014	184
375.508	206
381.994	148
388.473	134
394.947	122
401.412	122
407.871	162
414.323	208
420.768	158
427.206	124
433.637	94
440.062	86
446.479	78
452.89	74
459.293	90
465.691	108
472.081	156
478.463	226
484.84	308
491.21	174
497.573	120
503.929	104
510.279	168
516.621	176
522.957	154
529.287	218
535.609	410
541.925	402
548.234	224
554.536	214
560.832	418
567.12	1482
573.403	2000
579.679	492
585.948	340
592.211	280
598.466	206
604.715	132
610.958	90
617.194	92
623.424	112
629.647	136
635.864	148
642.074	118
648.276	98
654.473	90
660.664	78
666.847	64
673.025	68
679.195	60
685.36	68
691.517	60
697.669	58
703.814	68
709.953	82
716.085	110
722.21	82
728.33	80
734.443	84
740.549	96
746.65	146
752.743	120
758.831	92
764.912	70
770.986	70
777.055	80
783.117	86
789.173	68
795.222	72
801.265	66
807.302	84
813.333	72
819.357	78
825.376	144
831.387	494
837.392	260
843.392	114
849.386	96
855.372	84
861.353	82
867.328	66
873.296	62
879.258	70
885.214	62
891.164	62
897.108	54
903.046	58
908.977	60
914.903	62
920.822	58
926.735	60
932.643	56
938.543	78
944.439	100
950.328	152
956.21	310
962.088	372
967.958	226
973.824	130
979.682	86
985.534	80
991.382	72
997.222	50
1003.06	68
1008.89	60
1014.71	72
1020.53	78
1026.34	80
1032.14	104
1037.94	92
1043.73	84
1049.52	70
1055.3	64
1061.08	64
1066.85	72
1072.61	62
1078.37	70
1084.12	60
1089.87	70
1095.61	70
1101.34	84
1107.07	146
1112.8	358
1118.51	158
1124.22	102
1129.93	90
1135.63	78
1141.32	90
1147.01	78
1152.69	72
1158.37	90
1164.04	90
1169.71	88
1175.37	96
1181.02	156
1186.67	246
1192.31	184
1197.95	152
1203.58	172
1209.2	142
1214.82	102
1220.44	92
1226.05	106
1231.65	136
1237.25	100
1242.84	90
1248.42	88
1254	80
1259.58	90
1265.15	96
1270.71	88
1276.27	112
1281.82	128
1287.37	160
1292.91	192
1298.45	348
1303.98	784
1309.5	514
1315.02	262
1320.53	192
1326.04	186
1331.54	164
1337.04	136
1342.53	162
1348.02	172
1353.5	174
1358.98	144
1364.45	148
1369.91	174
1375.37	342
1380.82	418
1386.27	282
1391.71	160
1397.15	148
1402.58	142
1408.01	144
1413.43	150
1418.85	146
1424.26	180
1429.66	184
1435.06	216
1440.46	222
1445.85	198
1451.23	164
1456.61	164
1461.98	154
1467.35	154
1472.71	142
1478.07	140
1483.42	130
1488.77	128
1494.11	128
1499.45	122
1504.78	114
1510.11	110
1515.43	120
1520.74	104
1526.05	108
1531.36	112
1536.66	110
1541.95	110
1547.24	118
1552.52	106
1557.8	110
1563.08	110
1568.35	110
1573.61	120
1578.87	144
1584.12	180
1589.37	256
1594.61	314
1599.85	464
1605.08	452
1610.31	372
1615.53	248
1620.75	184
1625.96	124
1631.17	116
1636.37	92
1641.57	98
1646.76	86
1651.95	96
1657.13	88
1662.31	86
1667.48	78
1672.65	82
1677.81	76
1682.97	76
1688.12	76
1693.27	98
1698.41	72
1702.26	76