Folder: NRC_SU25_Spectral_Classification/Mixture_Classification/Jesse_Dataset_v2/Pure Raman/Polypropylene oxide/785nm (part 6)

File: ps-ppo-6jan25-0,0000-map2_Y07_X00.txt
204.377	382
211.048	350
217.712	366
224.369	466
231.019	892
237.661	884
244.297	606
250.924	390
257.546	250
264.16	214
270.766	182
277.365	182
283.958	238
290.543	376
297.121	432
303.693	312
310.256	250
316.813	232
323.362	248
329.905	234
336.441	244
342.969	228
349.491	208
356.006	214
362.513	184
369.014	190
375.508	188
381.994	156
388.473	140
394.947	130
401.412	132
407.871	154
414.323	208
420.768	176
427.206	126
433.637	92
440.062	82
446.479	76
452.89	78
459.293	82
465.691	92
472.081	162
478.463	228
484.84	294
491.21	174
497.573	114
503.929	100
510.279	162
516.621	164
522.957	152
529.287	240
535.609	418
541.925	414
548.234	214
554.536	210
560.832	400
567.12	1400
573.403	1922
579.679	504
585.948	324
592.211	266
598.466	200
604.715	112
610.958	84
617.194	88
623.424	118
629.647	130
635.864	156
642.074	134
648.276	100
654.473	84
660.664	74
666.847	70
673.025	64
679.195	62
685.36	62
691.517	58
697.669	56
703.814	62
709.953	78
716.085	84
722.21	70
728.33	74
734.443	86
740.549	102
746.65	144
752.743	110
758.831	102
764.912	66
770.986	66
777.055	76
783.117	76
789.173	72
795.222	60
801.265	66
807.302	68
813.333	70
819.357	88
825.376	134
831.387	466
837.392	238
843.392	104
849.386	96
855.372	92
861.353	82
867.328	70
873.296	66
879.258	62
885.214	66
891.164	62
897.108	56
903.046	52
908.977	58
914.903	56
920.822	58
926.735	64
932.643	68
938.543	76
944.439	96
950.328	150
956.21	292
962.088	388
967.958	238
973.824	122
979.682	86
985.534	80
991.382	88
997.222	60
1003.06	58
1008.89	70
1014.71	70
1020.53	72
1026.34	82
1032.14	98
1037.94	90
1043.73	80
1049.52	66
1055.3	64
1061.08	60
1066.85	60
1072.61	64
1078.37	66
1084.12	66
1089.87	62
1095.61	66
1101.34	80
1107.07	138
1112.8	336
1118.51	154
1124.22	102
1129.93	82
1135.63	90
1141.32	98
1147.01	86
1152.69	76
1158.37	88
1164.04	94
1169.71	90
1175.37	98
1181.02	142
1186.67	254
1192.31	170
1197.95	144
1203.58	174
1209.2	130
1214.82	88
1220.44	86
1226.05	112
1231.65	134
1237.25	96
1242.84	94
1248.42	88
1254	72
1259.58	90
1265.15	90
1270.71	90
1276.27	108
1281.82	126
1287.37	156
1292.91	182
1298.45	320
1303.98	738
1309.5	514
1315.02	262
1320.53	192
1326.04	180
1331.54	150
1337.04	156
1342.53	150
1348.02	164
1353.5	164
1358.98	158
1364.45	144
1369.91	176
1375.37	336
1380.82	426
1386.27	280
1391.71	152
1397.15	128
1402.58	132
1408.01	132
1413.43	142
1418.85	150
1424.26	176
1429.66	182
1435.06	206
1440.46	224
1445.85	182
1451.23	168
1456.61	164
1461.98	148
1467.35	154
1472.71	148
1478.07	144
1483.42	140
1488.77	130
1494.11	124
1499.45	112
1504.78	112
1510.11	114
1515.43	110
1520.74	100
1526.05	112
1531.36	106
1536.66	104
1541.95	108
1547.24	104
1552.52	112
1557.8	114
1563.08	110
1568.35	120
1573.61	128
1578.87	142
1584.12	168
1589.37	248
1594.61	338
1599.85	468
1605.08	470
1610.31	348
1615.53	242
1620.75	168
1625.96	146
1631.17	104
1636.37	94
1641.57	98
1646.76	88
1651.95	86
1657.13	74
1662.31	80
1667.48	82
1672.65	76
1677.81	74
1682.97	82
1688.12	74
1693.27	84
1698.41	86
1702.26	80

File: ps-ppo-6jan25-0,0000-map2_Y07_X02.txt
204.377	390
211.048	332
217.712	332
224.369	476
231.019	912
237.661	908
244.297	612
250.924	392
257.546	282
264.16	194
270.766	176
277.365	186
283.958	250
290.543	364
297.121	436
303.693	320
310.256	278
316.813	212
323.362	238
329.905	248
336.441	272
342.969	214
349.491	210
356.006	212
362.513	180
369.014	198
375.508	188
381.994	146
388.473	136
394.947	128
401.412	130
407.871	158
414.323	214
420.768	158
427.206	116
433.637	102
440.062	88
446.479	82
452.89	92
459.293	92
465.691	104
472.081	154
478.463	224
484.84	304
491.21	170
497.573	104
503.929	88
510.279	158
516.621	166
522.957	164
529.287	228
535.609	388
541.925	426
548.234	226
554.536	216
560.832	406
567.12	1414
573.403	1966
579.679	492
585.948	340
592.211	258
598.466	206
604.715	124
610.958	100
617.194	88
623.424	106
629.647	132
635.864	156
642.074	132
648.276	114
654.473	92
660.664	70
666.847	66
673.025	64
679.195	64
685.36	60
691.517	66
697.669	62
703.814	66
709.953	82
716.085	108
722.21	82
728.33	90
734.443	84
740.549	94
746.65	140
752.743	124
758.831	96
764.912	72
770.986	76
777.055	82
783.117	78
789.173	74
795.222	66
801.265	68
807.302	76
813.333	74
819.357	92
825.376	136
831.387	498
837.392	246
843.392	112
849.386	94
855.372	92
861.353	86
867.328	66
873.296	66
879.258	68
885.214	58
891.164	64
897.108	54
903.046	52
908.977	64
914.903	58
920.822	64
926.735	64
932.643	62
938.543	72
944.439	90
950.328	142
956.21	294
962.088	368
967.958	218
973.824	130
979.682	80
985.534	72
991.382	78
997.222	60
1003.06	56
1008.89	64
1014.71	68
1020.53	72
1026.34	80
1032.14	96
1037.94	98
1043.73	84
1049.52	76
1055.3	74
1061.08	64
1066.85	64
1072.61	58
1078.37	70
1084.12	68
1089.87	66
1095.61	66
1101.34	74
1107.07	142
1112.8	358
1118.51	158
1124.22	104
1129.93	92
1135.63	78
1141.32	94
1147.01	84
1152.69	70
1158.37	92
1164.04	92
1169.71	84
1175.37	106
1181.02	154
1186.67	242
1192.31	150
1197.95	138
1203.58	174
1209.2	132
1214.82	94
1220.44	90
1226.05	120
1231.65	122
1237.25	96
1242.84	74
1248.42	86
1254	80
1259.58	88
1265.15	92
1270.71	96
1276.27	108
1281.82	128
1287.37	148
1292.91	182
1298.45	352
1303.98	794
1309.5	514
1315.02	264
1320.53	194
1326.04	190
1331.54	178
1337.04	154
1342.53	146
1348.02	164
1353.5	158
1358.98	158
1364.45	146
1369.91	158
1375.37	350
1380.82	424
1386.27	262
1391.71	152
1397.15	130
1402.58	144
1408.01	140
1413.43	144
1418.85	158
1424.26	176
1429.66	192
1435.06	200
1440.46	212
1445.85	190
1451.23	178
1456.61	158
1461.98	162
1467.35	150
1472.71	136
1478.07	142
1483.42	136
1488.77	120
1494.11	124
1499.45	120
1504.78	114
1510.11	104
1515.43	116
1520.74	116
1526.05	116
1531.36	114
1536.66	102
1541.95	112
1547.24	100
1552.52	110
1557.8	118
1563.08	106
1568.35	112
1573.61	124
1578.87	152
1584.12	176
1589.37	244
1594.61	310
1599.85	474
1605.08	444
1610.31	342
1615.53	238
1620.75	168
1625.96	128
1631.17	102
1636.37	98
1641.57	94
1646.76	86
1651.95	88
1657.13	82
1662.31	78
1667.48	74
1672.65	86
1677.81	70
1682.97	82
1688.12	86
1693.27	82
1698.41	78
1702.26	76

File: ps-ppo-6jan25-0,0000-map2_Y07_X06.txt
204.377	388
211.048	340
217.712	342
224.369	514
231.019	902
237.661	918
244.297	630
250.924	414
257.546	272
264.16	208
270.766	190
277.365	184
283.958	232
290.543	364
297.121	426
303.693	330
310.256	272
316.813	236
323.362	234
329.905	246
336.441	250
342.969	216
349.491	198
356.006	208
362.513	194
369.014	196
375.508	192
381.994	154
388.473	128
394.947	124
401.412	134
407.871	160
414.323	232
420.768	166
427.206	124
433.637	100
440.062	88
446.479	80
452.89	78
459.293	90
465.691	104
472.081	162
478.463	226
484.84	282
491.21	174
497.573	114
503.929	90
510.279	168
516.621	170
522.957	160
529.287	238
535.609	400
541.925	422
548.234	228
554.536	216
560.832	412
567.12	1450
573.403	1982
579.679	510
585.948	324
592.211	258
598.466	220
604.715	118
610.958	96
617.194	102
623.424	110
629.647	142
635.864	160
642.074	128
648.276	100
654.473	88
660.664	76
666.847	68
673.025	58
679.195	60
685.36	64
691.517	60
697.669	62
703.814	68
709.953	72
716.085	96
722.21	78
728.33	76
734.443	84
740.549	86
746.65	134
752.743	118
758.831	94
764.912	66
770.986	70
777.055	80
783.117	78
789.173	60
795.222	70
801.265	60
807.302	70
813.333	78
819.357	82
825.376	140
831.387	484
837.392	246
843.392	102
849.386	98
855.372	84
861.353	88
867.328	68
873.296	64
879.258	68
885.214	64
891.164	54
897.108	56
903.046	62
908.977	52
914.903	56
920.822	60
926.735	62
932.643	68
938.543	72
944.439	94
950.328	150
956.21	294
962.088	378
967.958	226
973.824	142
979.682	88
985.534	64
991.382	82
997.222	66
1003.06	62
1008.89	58
1014.71	64
1020.53	78
1026.34	90
1032.14	94
1037.94	88
1043.73	84
1049.52	74
1055.3	68
1061.08	68
1066.85	52
1072.61	62
1078.37	62
1084.12	70
1089.87	66
1095.61	70
1101.34	86
1107.07	148
1112.8	342
1118.51	176
1124.22	100
1129.93	80
1135.63	84
1141.32	92
1147.01	80
1152.69	76
1158.37	84
1164.04	84
1169.71	86
1175.37	92
1181.02	148
1186.67	250
1192.31	160
1197.95	156
1203.58	178
1209.2	122
1214.82	102
1220.44	96
1226.05	114
1231.65	146
1237.25	100
1242.84	98
1248.42	80
1254	86
1259.58	84
1265.15	92
1270.71	104
1276.27	106
1281.82	122
1287.37	154
1292.91	184
1298.45	360
1303.98	770
1309.5	520
1315.02	252
1320.53	200
1326.04	194
1331.54	176
1337.04	132
1342.53	144
1348.02	168
1353.5	160
1358.98	140
1364.45	144
1369.91	172
1375.37	316
1380.82	426
1386.27	280
1391.71	148
1397.15	132
1402.58	132
1408.01	126
1413.43	136
1418.85	148
1424.26	174
1429.66	186
1435.06	206
1440.46	218
1445.85	178
1451.23	168
1456.61	162
1461.98	164
1467.35	158
1472.71	154
1478.07	142
1483.42	136
1488.77	126
1494.11	108
1499.45	118
1504.78	106
1510.11	124
1515.43	120
1520.74	112
1526.05	104
1531.36	104
1536.66	108
1541.95	100
1547.24	112
1552.52	100
1557.8	110
1563.08	116
1568.35	112
1573.61	134
1578.87	142
1584.12	184
1589.37	244
1594.61	334
1599.85	452
1605.08	456
1610.31	342
1615.53	258
1620.75	170
1625.96	128
1631.17	110
1636.37	94
1641.57	92
1646.76	78
1651.95	82
1657.13	82
1662.31	78
1667.48	78
1672.65	76
1677.81	82
1682.97	72
1688.12	80
1693.27	86
1698.41	76
1702.26	72

File: ps-ppo-6jan25-0,0000-map2_Y07_X09.txt
204.377	366
211.048	342
217.712	322
224.369	482
231.019	878
237.661	856
244.297	588
250.924	392
257.546	274
264.16	184
270.766	176
277.365	174
283.958	216
290.543	358
297.121	392
303.693	322
310.256	248
316.813	228
323.362	232
329.905	254
336.441	246
342.969	196
349.491	200
356.006	208
362.513	200
369.014	186
375.508	186
381.994	148
388.473	136
394.947	118
401.412	126
407.871	146
414.323	208
420.768	158
427.206	114
433.637	98
440.062	86
446.479	84
452.89	74
459.293	82
465.691	92
472.081	150
478.463	208
484.84	284
491.21	164
497.573	104
503.929	94
510.279	160
516.621	164
522.957	138
529.287	222
535.609	370
541.925	392
548.234	194
554.536	194
560.832	410
567.12	1380
573.403	1874
579.679	462
585.948	300
592.211	254
598.466	210
604.715	122
610.958	78
617.194	80
623.424	118
629.647	136
635.864	148
642.074	124
648.276	98
654.473	86
660.664	74
666.847	64
673.025	62
679.195	54
685.36	58
691.517	58
697.669	60
703.814	62
709.953	74
716.085	104
722.21	74
728.33	68
734.443	74
740.549	82
746.65	130
752.743	108
758.831	82
764.912	68
770.986	68
777.055	78
783.117	76
789.173	68
795.222	62
801.265	62
807.302	72
813.333	70
819.357	74
825.376	138
831.387	482
837.392	250
843.392	96
849.386	90
855.372	90
861.353	74
867.328	68
873.296	68
879.258	62
885.214	58
891.164	58
897.108	58
903.046	58
908.977	60
914.903	60
920.822	58
926.735	60
932.643	60
938.543	74
944.439	96
950.328	156
956.21	296
962.088	354
967.958	196
973.824	126
979.682	80
985.534	70
991.382	72
997.222	62
1003.06	62
1008.89	62
1014.71	66
1020.53	74
1026.34	76
1032.14	88
1037.94	98
1043.73	72
1049.52	64
1055.3	58
1061.08	62
1066.85	60
1072.61	64
1078.37	64
1084.12	60
1089.87	70
1095.61	72
1101.34	78
1107.07	136
1112.8	332
1118.51	142
1124.22	106
1129.93	76
1135.63	84
1141.32	84
1147.01	74
1152.69	68
1158.37	76
1164.04	84
1169.71	82
1175.37	94
1181.02	124
1186.67	226
1192.31	160
1197.95	156
1203.58	160
1209.2	130
1214.82	84
1220.44	88
1226.05	112
1231.65	132
1237.25	90
1242.84	86
1248.42	80
1254	80
1259.58	80
1265.15	90
1270.71	96
1276.27	100
1281.82	124
1287.37	146
1292.91	186
1298.45	332
1303.98	742
1309.5	504
1315.02	240
1320.53	200
1326.04	168
1331.54	170
1337.04	148
1342.53	152
1348.02	150
1353.5	156
1358.98	146
1364.45	142
1369.91	168
1375.37	310
1380.82	392
1386.27	258
1391.71	148
1397.15	126
1402.58	132
1408.01	132
1413.43	134
1418.85	142
1424.26	176
1429.66	180
1435.06	194
1440.46	206
1445.85	180
1451.23	172
1456.61	146
1461.98	158
1467.35	150
1472.71	146
1478.07	144
1483.42	124
1488.77	114
1494.11	116
1499.45	114
1504.78	112
1510.11	100
1515.43	94
1520.74	116
1526.05	108
1531.36	96
1536.66	108
1541.95	106
1547.24	104
1552.52	102
1557.8	110
1563.08	114
1568.35	108
1573.61	114
1578.87	140
1584.12	170
1589.37	222
1594.61	328
1599.85	460
1605.08	436
1610.31	330
1615.53	246
1620.75	158
1625.96	118
1631.17	110
1636.37	100
1641.57	84
1646.76	90
1651.95	82
1657.13	80
1662.31	88
1667.48	68
1672.65	70
1677.81	76
1682.97	76
1688.12	86
1693.27	78
1698.41	74
1702.26	76

File: ps-ppo-6jan25-0,0000-map2_Y08_X01.txt
204.377	346
211.048	294
217.712	326
224.369	450
231.019	862
237.661	868
244.297	612
250.924	368
257.546	262
264.16	188
270.766	168
277.365	182
283.958	212
290.543	356
297.121	420
303.693	326
310.256	252
316.813	212
323.362	234
329.905	256
336.441	236
342.969	196
349.491	188
356.006	210
362.513	194
369.014	190
375.508	182
381.994	140
388.473	136
394.947	118
401.412	136
407.871	144
414.323	216
420.768	148
427.206	122
433.637	100
440.062	82
446.479	70
452.89	82
459.293	82
465.691	94
472.081	134
478.463	214
484.84	282
491.21	164
497.573	108
503.929	108
510.279	150
516.621	166
522.957	156
529.287	222
535.609	378
541.925	406
548.234	206
554.536	206
560.832	380
567.12	1388
573.403	1912
579.679	468
585.948	326
592.211	258
598.466	204
604.715	110
610.958	88
617.194	100
623.424	104
629.647	128
635.864	146
642.074	122
648.276	102
654.473	86
660.664	62
666.847	72
673.025	64
679.195	56
685.36	58
691.517	56
697.669	66
703.814	62
709.953	78
716.085	94
722.21	68
728.33	76
734.443	80
740.549	86
746.65	140
752.743	112
758.831	90
764.912	66
770.986	64
777.055	86
783.117	72
789.173	74
795.222	70
801.265	66
807.302	74
813.333	78
819.357	86
825.376	128
831.387	470
837.392	238
843.392	92
849.386	90
855.372	86
861.353	84
867.328	70
873.296	70
879.258	58
885.214	58
891.164	48
897.108	60
903.046	58
908.977	62
914.903	58
920.822	54
926.735	62
932.643	64
938.543	70
944.439	86
950.328	142
956.21	292
962.088	366
967.958	210
973.824	142
979.682	82
985.534	80
991.382	78
997.222	60
1003.06	60
1008.89	60
1014.71	64
1020.53	78
1026.34	78
1032.14	90
1037.94	90
1043.73	84
1049.52	70
1055.3	62
1061.08	64
1066.85	56
1072.61	56
1078.37	58
1084.12	66
1089.87	70
1095.61	68
1101.34	74
1107.07	128
1112.8	342
1118.51	136
1124.22	96
1129.93	84
1135.63	76
1141.32	86
1147.01	74
1152.69	68
1158.37	84
1164.04	90
1169.71	76
1175.37	94
1181.02	146
1186.67	234
1192.31	152
1197.95	140
1203.58	160
1209.2	122
1214.82	100
1220.44	78
1226.05	106
1231.65	126
1237.25	104
1242.84	84
1248.42	76
1254	78
1259.58	80
1265.15	92
1270.71	96
1276.27	108
1281.82	122
1287.37	144
1292.91	174
1298.45	322
1303.98	720
1309.5	488
1315.02	238
1320.53	180
1326.04	178
1331.54	164
1337.04	146
1342.53	138
1348.02	154
1353.5	158
1358.98	148
1364.45	140
1369.91	166
1375.37	336
1380.82	402
1386.27	266
1391.71	160
1397.15	142
1402.58	120
1408.01	130
1413.43	142
1418.85	152
1424.26	168
1429.66	166
1435.06	188
1440.46	212
1445.85	182
1451.23	164
1456.61	156
1461.98	154
1467.35	144
1472.71	146
1478.07	148
1483.42	132
1488.77	114
1494.11	104
1499.45	106
1504.78	106
1510.11	110
1515.43	110
1520.74	100
1526.05	104
1531.36	98
1536.66	106
1541.95	116
1547.24	100
1552.52	98
1557.8	110
1563.08	104
1568.35	110
1573.61	108
1578.87	142
1584.12	168
1589.37	242
1594.61	326
1599.85	434
1605.08	416
1610.31	342
1615.53	230
1620.75	164
1625.96	124
1631.17	104
1636.37	86
1641.57	86
1646.76	80
1651.95	84
1657.13	80
1662.31	82
1667.48	72
1672.65	74
1677.81	80
1682.97	74
1688.12	88
1693.27	70
1698.41	74
1702.26	80

File: ps-ppo-6jan25-0,0000-map2_Y09_X01.txt
204.377	354
211.048	320
217.712	308
224.369	420
231.019	852
237.661	840
244.297	588
250.924	390
257.546	236
264.16	198
270.766	174
277.365	184
283.958	218
290.543	366
297.121	404
303.693	290
310.256	256
316.813	216
323.362	216
329.905	232
336.441	250
342.969	206
349.491	200
356.006	220
362.513	180
369.014	182
375.508	182
381.994	144
388.473	126
394.947	120
401.412	118
407.871	140
414.323	204
420.768	156
427.206	104
433.637	100
440.062	76
446.479	74
452.89	78
459.293	78
465.691	96
472.081	140
478.463	204
484.84	278
491.21	158
497.573	108
503.929	96
510.279	160
516.621	158
522.957	156
529.287	228
535.609	370
541.925	398
548.234	214
554.536	194
560.832	392
567.12	1372
573.403	1828
579.679	474
585.948	312
592.211	260
598.466	196
604.715	110
610.958	86
617.194	88
623.424	106
629.647	130
635.864	140
642.074	116
648.276	104
654.473	86
660.664	68
666.847	66
673.025	60
679.195	56
685.36	58
691.517	58
697.669	54
703.814	66
709.953	80
716.085	90
722.21	80
728.33	70
734.443	82
740.549	84
746.65	134
752.743	118
758.831	88
764.912	70
770.986	72
777.055	80
783.117	68
789.173	66
795.222	56
801.265	72
807.302	70
813.333	76
819.357	86
825.376	126
831.387	450
837.392	234
843.392	102
849.386	100
855.372	76
861.353	80
867.328	70
873.296	62
879.258	58
885.214	56
891.164	56
897.108	46
903.046	54
908.977	50
914.903	56
920.822	50
926.735	50
932.643	70
938.543	70
944.439	84
950.328	138
956.21	276
962.088	340
967.958	208
973.824	128
979.682	88
985.534	62
991.382	72
997.222	60
1003.06	64
1008.89	58
1014.71	66
1020.53	64
1026.34	82
1032.14	100
1037.94	82
1043.73	78
1049.52	68
1055.3	66
1061.08	64
1066.85	64
1072.61	64
1078.37	54
1084.12	62
1089.87	68
1095.61	66
1101.34	80
1107.07	134
1112.8	332
1118.51	150
1124.22	102
1129.93	90
1135.63	84
1141.32	88
1147.01	70
1152.69	70
1158.37	86
1164.04	88
1169.71	76
1175.37	90
1181.02	140
1186.67	228
1192.31	158
1197.95	160
1203.58	170
1209.2	132
1214.82	92
1220.44	90
1226.05	102
1231.65	114
1237.25	98
1242.84	90
1248.42	84
1254	80
1259.58	86
1265.15	94
1270.71	86
1276.27	108
1281.82	124
1287.37	148
1292.91	184
1298.45	318
1303.98	710
1309.5	482
1315.02	258
1320.53	178
1326.04	172
1331.54	172
1337.04	138
1342.53	132
1348.02	160
1353.5	148
1358.98	134
1364.45	144
1369.91	176
1375.37	324
1380.82	402
1386.27	256
1391.71	158
1397.15	130
1402.58	136
1408.01	128
1413.43	132
1418.85	150
1424.26	174
1429.66	166
1435.06	188
1440.46	194
1445.85	186
1451.23	154
1456.61	158
1461.98	146
1467.35	142
1472.71	136
1478.07	128
1483.42	126
1488.77	130
1494.11	112
1499.45	100
1504.78	116
1510.11	102
1515.43	102
1520.74	98
1526.05	106
1531.36	104
1536.66	90
1541.95	112
1547.24	104
1552.52	106
1557.8	104
1563.08	104
1568.35	108
1573.61	110
1578.87	144
1584.12	164
1589.37	220
1594.61	322
1599.85	422
1605.08	422
1610.31	330
1615.53	230
1620.75	168
1625.96	114
1631.17	102
1636.37	96
1641.57	90
1646.76	76
1651.95	82
1657.13	78
1662.31	78
1667.48	80
1672.65	74
1677.81	76
1682.97	78
1688.12	78
1693.27	74
1698.41	70
1702.26	76

File: ps-ppo-6jan25-0,0000-map2_Y09_X02.txt
204.377	358
211.048	282
217.712	310
224.369	420
231.019	820
237.661	798
244.297	564
250.924	368
257.546	248
264.16	188
270.766	162
277.365	160
283.958	214
290.543	336
297.121	378
303.693	280
310.256	252
316.813	202
323.362	206
329.905	226
336.441	226
342.969	200
349.491	190
356.006	204
362.513	176
369.014	174
375.508	172
381.994	132
388.473	126
394.947	116
401.412	122
407.871	140
414.323	200
420.768	146
427.206	112
433.637	82
440.062	82
446.479	74
452.89	64
459.293	78
465.691	98
472.081	138
478.463	190
484.84	256
491.21	156
497.573	98
503.929	86
510.279	148
516.621	162
522.957	142
529.287	200
535.609	370
541.925	368
548.234	200
554.536	198
560.832	364
567.12	1292
573.403	1740
579.679	442
585.948	294
592.211	232
598.466	202
604.715	112
610.958	88
617.194	90
623.424	96
629.647	124
635.864	134
642.074	116
648.276	98
654.473	80
660.664	72
666.847	60
673.025	56
679.195	58
685.36	56
691.517	56
697.669	54
703.814	66
709.953	76
716.085	92
722.21	78
728.33	68
734.443	78
740.549	82
746.65	130
752.743	104
758.831	86
764.912	72
770.986	64
777.055	70
783.117	70
789.173	64
795.222	56
801.265	64
807.302	70
813.333	68
819.357	84
825.376	122
831.387	434
837.392	224
843.392	100
849.386	88
855.372	84
861.353	78
867.328	62
873.296	62
879.258	58
885.214	56
891.164	60
897.108	54
903.046	50
908.977	56
914.903	58
920.822	50
926.735	56
932.643	58
938.543	64
944.439	90
950.328	128
956.21	282
962.088	320
967.958	206
973.824	124
979.682	82
985.534	70
991.382	62
997.222	72
1003.06	66
1008.89	60
1014.71	60
1020.53	74
1026.34	84
1032.14	82
1037.94	90
1043.73	80
1049.52	70
1055.3	68
1061.08	60
1066.85	52
1072.61	62
1078.37	68
1084.12	62
1089.87	58
1095.61	68
1101.34	72
1107.07	134
1112.8	310
1118.51	142
1124.22	90
1129.93	82
1135.63	80
1141.32	84
1147.01	68
1152.69	66
1158.37	76
1164.04	82
1169.71	78
1175.37	96
1181.02	116
1186.67	220
1192.31	140
1197.95	148
1203.58	164
1209.2	116
1214.82	86
1220.44	88
1226.05	102
1231.65	114
1237.25	88
1242.84	82
1248.42	72
1254	76
1259.58	80
1265.15	90
1270.71	90
1276.27	104
1281.82	110
1287.37	142
1292.91	176
1298.45	310
1303.98	686
1309.5	490
1315.02	248
1320.53	176
1326.04	170
1331.54	162
1337.04	134
1342.53	132
1348.02	154
1353.5	154
1358.98	144
1364.45	134
1369.91	168
1375.37	316
1380.82	376
1386.27	246
1391.71	150
1397.15	128
1402.58	124
1408.01	122
1413.43	140
1418.85	154
1424.26	172
1429.66	172
1435.06	190
1440.46	196
1445.85	166
1451.23	146
1456.61	146
1461.98	138
1467.35	144
1472.71	140
1478.07	130
1483.42	120
1488.77	110
1494.11	110
1499.45	102
1504.78	106
1510.11	104
1515.43	106
1520.74	110
1526.05	102
1531.36	108
1536.66	104
1541.95	104
1547.24	94
1552.52	100
1557.8	94
1563.08	106
1568.35	114
1573.61	112
1578.87	132
1584.12	148
1589.37	216
1594.61	302
1599.85	412
1605.08	424
1610.31	332
1615.53	212
1620.75	150
1625.96	120
1631.17	114
1636.37	102
1641.57	78
1646.76	78
1651.95	74
1657.13	82
1662.31	70
1667.48	80
1672.65	72
1677.81	72
1682.97	80
1688.12	86
1693.27	68
1698.41	74
1702.26	76

File: ps-ppo-6jan25-0,0000-map2_Y09_X04.txt
204.377	312
211.048	302
217.712	282
224.369	422
231.019	770
237.661	796
244.297	560
250.924	362
257.546	252
264.16	172
270.766	160
277.365	148
283.958	198
290.543	328
297.121	378
303.693	282
310.256	226
316.813	212
323.362	200
329.905	230
336.441	224
342.969	178
349.491	198
356.006	176
362.513	158
369.014	160
375.508	174
381.994	140
388.473	114
394.947	126
401.412	104
407.871	132
414.323	180
420.768	144
427.206	110
433.637	94
440.062	72
446.479	70
452.89	72
459.293	76
465.691	82
472.081	128
478.463	192
484.84	246
491.21	156
497.573	102
503.929	88
510.279	140
516.621	154
522.957	140
529.287	204
535.609	348
541.925	342
548.234	188
554.536	178
560.832	358
567.12	1246
573.403	1676
579.679	426
585.948	292
592.211	220
598.466	178
604.715	104
610.958	78
617.194	84
623.424	96
629.647	120
635.864	132
642.074	118
648.276	96
654.473	76
660.664	74
666.847	68
673.025	58
679.195	50
685.36	66
691.517	56
697.669	56
703.814	68
709.953	76
716.085	88
722.21	68
728.33	74
734.443	76
740.549	82
746.65	124
752.743	104
758.831	72
764.912	60
770.986	68
777.055	74
783.117	68
789.173	62
795.222	56
801.265	64
807.302	72
813.333	72
819.357	78
825.376	104
831.387	410
837.392	206
843.392	84
849.386	94
855.372	80
861.353	74
867.328	64
873.296	50
879.258	62
885.214	54
891.164	58
897.108	54
903.046	54
908.977	50
914.903	54
920.822	54
926.735	54
932.643	60
938.543	62
944.439	76
950.328	124
956.21	266
962.088	310
967.958	190
973.824	118
979.682	74
985.534	62
991.382	60
997.222	56
1003.06	56
1008.89	58
1014.71	62
1020.53	76
1026.34	80
1032.14	80
1037.94	84
1043.73	80
1049.52	62
1055.3	60
1061.08	56
1066.85	58
1072.61	62
1078.37	58
1084.12	48
1089.87	60
1095.61	66
1101.34	72
1107.07	118
1112.8	302
1118.51	132
1124.22	92
1129.93	82
1135.63	78
1141.32	88
1147.01	72
1152.69	80
1158.37	78
1164.04	86
1169.71	76
1175.37	86
1181.02	128
1186.67	204
1192.31	150
1197.95	144
1203.58	154
1209.2	122
1214.82	84
1220.44	88
1226.05	92
1231.65	114
1237.25	72
1242.84	68
1248.42	80
1254	86
1259.58	80
1265.15	86
1270.71	82
1276.27	98
1281.82	112
1287.37	140
1292.91	160
1298.45	300
1303.98	640
1309.5	450
1315.02	232
1320.53	178
1326.04	158
1331.54	142
1337.04	120
1342.53	128
1348.02	138
1353.5	150
1358.98	128
1364.45	138
1369.91	160
1375.37	302
1380.82	364
1386.27	246
1391.71	142
1397.15	124
1402.58	116
1408.01	122
1413.43	130
1418.85	138
1424.26	168
1429.66	166
1435.06	178
1440.46	188
1445.85	172
1451.23	134
1456.61	144
1461.98	136
1467.35	136
1472.71	130
1478.07	132
1483.42	116
1488.77	112
1494.11	110
1499.45	106
1504.78	110
1510.11	102
1515.43	94
1520.74	104
1526.05	96
1531.36	94
1536.66	94
1541.95	92
1547.24	98
1552.52	100
1557.8	104
1563.08	108
1568.35	100
1573.61	118
1578.87	128
1584.12	154
1589.37	222
1594.61	300
1599.85	392
1605.08	376
1610.31	292
1615.53	212
1620.75	150
1625.96	110
1631.17	86
1636.37	88
1641.57	90
1646.76	76
1651.95	80
1657.13	76
1662.31	70
1667.48	80
1672.65	70
1677.81	72
1682.97	74
1688.12	74
1693.27	76
1698.41	82
1702.26	70