Folder: NRC_SU25_Spectral_Classification/Mixture_Classification/Jesse_Dataset_v2/Pure Raman/Polypropylene oxide/785nm (part 3)

File: ps-ppo-6jan25-0,0000-map2_Y02_X08.txt
204.377	378
211.048	348
217.712	354
224.369	488
231.019	924
237.661	936
244.297	654
250.924	422
257.546	282
264.16	206
270.766	182
277.365	192
283.958	246
290.543	392
297.121	464
303.693	340
310.256	274
316.813	240
323.362	238
329.905	270
336.441	258
342.969	230
349.491	218
356.006	222
362.513	196
369.014	194
375.508	208
381.994	154
388.473	144
394.947	134
401.412	128
407.871	158
414.323	232
420.768	172
427.206	114
433.637	104
440.062	94
446.479	72
452.89	88
459.293	80
465.691	108
472.081	150
478.463	238
484.84	316
491.21	186
497.573	118
503.929	98
510.279	164
516.621	170
522.957	152
529.287	218
535.609	448
541.925	420
548.234	234
554.536	214
560.832	410
567.12	1488
573.403	2034
579.679	496
585.948	342
592.211	274
598.466	212
604.715	116
610.958	102
617.194	100
623.424	114
629.647	132
635.864	158
642.074	134
648.276	100
654.473	92
660.664	80
666.847	60
673.025	60
679.195	58
685.36	56
691.517	64
697.669	58
703.814	68
709.953	82
716.085	106
722.21	78
728.33	76
734.443	82
740.549	90
746.65	148
752.743	126
758.831	104
764.912	68
770.986	66
777.055	82
783.117	78
789.173	72
795.222	66
801.265	64
807.302	76
813.333	76
819.357	88
825.376	134
831.387	500
837.392	270
843.392	114
849.386	94
855.372	94
861.353	80
867.328	74
873.296	62
879.258	66
885.214	60
891.164	58
897.108	58
903.046	60
908.977	64
914.903	64
920.822	54
926.735	58
932.643	64
938.543	78
944.439	94
950.328	150
956.21	320
962.088	368
967.958	220
973.824	142
979.682	80
985.534	74
991.382	74
997.222	66
1003.06	60
1008.89	60
1014.71	74
1020.53	78
1026.34	88
1032.14	102
1037.94	94
1043.73	82
1049.52	70
1055.3	66
1061.08	70
1066.85	64
1072.61	68
1078.37	72
1084.12	70
1089.87	70
1095.61	74
1101.34	82
1107.07	140
1112.8	382
1118.51	176
1124.22	112
1129.93	92
1135.63	86
1141.32	84
1147.01	80
1152.69	78
1158.37	88
1164.04	90
1169.71	98
1175.37	104
1181.02	154
1186.67	236
1192.31	170
1197.95	172
1203.58	178
1209.2	142
1214.82	88
1220.44	86
1226.05	112
1231.65	130
1237.25	100
1242.84	90
1248.42	88
1254	86
1259.58	92
1265.15	98
1270.71	100
1276.27	100
1281.82	130
1287.37	156
1292.91	204
1298.45	358
1303.98	802
1309.5	542
1315.02	276
1320.53	194
1326.04	172
1331.54	174
1337.04	142
1342.53	148
1348.02	172
1353.5	168
1358.98	150
1364.45	154
1369.91	184
1375.37	356
1380.82	450
1386.27	302
1391.71	176
1397.15	140
1402.58	136
1408.01	140
1413.43	152
1418.85	164
1424.26	184
1429.66	196
1435.06	218
1440.46	220
1445.85	202
1451.23	180
1456.61	166
1461.98	154
1467.35	160
1472.71	150
1478.07	158
1483.42	134
1488.77	128
1494.11	116
1499.45	120
1504.78	114
1510.11	106
1515.43	114
1520.74	116
1526.05	122
1531.36	112
1536.66	108
1541.95	114
1547.24	110
1552.52	110
1557.8	112
1563.08	120
1568.35	114
1573.61	118
1578.87	140
1584.12	182
1589.37	238
1594.61	346
1599.85	462
1605.08	482
1610.31	376
1615.53	256
1620.75	174
1625.96	126
1631.17	114
1636.37	94
1641.57	88
1646.76	94
1651.95	90
1657.13	86
1662.31	86
1667.48	92
1672.65	82
1677.81	76
1682.97	80
1688.12	80
1693.27	80
1698.41	80
1702.26	82

File: ps-ppo-6jan25-0,0000-map2_Y02_X09.txt
204.377	378
211.048	338
217.712	342
224.369	498
231.019	946
237.661	908
244.297	672
250.924	422
257.546	282
264.16	228
270.766	176
277.365	186
283.958	232
290.543	374
297.121	422
303.693	336
310.256	264
316.813	232
323.362	250
329.905	254
336.441	268
342.969	222
349.491	216
356.006	222
362.513	208
369.014	194
375.508	198
381.994	154
388.473	128
394.947	128
401.412	138
407.871	158
414.323	228
420.768	164
427.206	118
433.637	96
440.062	78
446.479	80
452.89	78
459.293	88
465.691	102
472.081	154
478.463	228
484.84	298
491.21	176
497.573	112
503.929	106
510.279	168
516.621	170
522.957	172
529.287	240
535.609	398
541.925	418
548.234	230
554.536	202
560.832	404
567.12	1478
573.403	2084
579.679	534
585.948	340
592.211	266
598.466	214
604.715	110
610.958	90
617.194	92
623.424	114
629.647	138
635.864	148
642.074	132
648.276	94
654.473	84
660.664	80
666.847	60
673.025	58
679.195	60
685.36	72
691.517	64
697.669	60
703.814	66
709.953	90
716.085	100
722.21	76
728.33	78
734.443	78
740.549	90
746.65	146
752.743	132
758.831	102
764.912	74
770.986	78
777.055	78
783.117	78
789.173	70
795.222	66
801.265	76
807.302	80
813.333	74
819.357	80
825.376	132
831.387	482
837.392	258
843.392	110
849.386	98
855.372	84
861.353	74
867.328	74
873.296	64
879.258	56
885.214	58
891.164	60
897.108	56
903.046	56
908.977	48
914.903	58
920.822	52
926.735	58
932.643	66
938.543	70
944.439	92
950.328	164
956.21	294
962.088	388
967.958	246
973.824	142
979.682	86
985.534	76
991.382	76
997.222	66
1003.06	60
1008.89	70
1014.71	72
1020.53	82
1026.34	84
1032.14	106
1037.94	96
1043.73	82
1049.52	64
1055.3	68
1061.08	60
1066.85	68
1072.61	58
1078.37	64
1084.12	74
1089.87	64
1095.61	74
1101.34	82
1107.07	134
1112.8	370
1118.51	166
1124.22	106
1129.93	94
1135.63	88
1141.32	84
1147.01	78
1152.69	76
1158.37	76
1164.04	94
1169.71	86
1175.37	108
1181.02	140
1186.67	242
1192.31	180
1197.95	166
1203.58	182
1209.2	120
1214.82	90
1220.44	86
1226.05	116
1231.65	138
1237.25	104
1242.84	84
1248.42	84
1254	86
1259.58	94
1265.15	94
1270.71	106
1276.27	100
1281.82	134
1287.37	168
1292.91	200
1298.45	368
1303.98	776
1309.5	524
1315.02	278
1320.53	176
1326.04	194
1331.54	172
1337.04	146
1342.53	152
1348.02	172
1353.5	168
1358.98	160
1364.45	162
1369.91	168
1375.37	356
1380.82	438
1386.27	284
1391.71	172
1397.15	134
1402.58	138
1408.01	142
1413.43	142
1418.85	166
1424.26	190
1429.66	208
1435.06	196
1440.46	208
1445.85	202
1451.23	170
1456.61	164
1461.98	162
1467.35	158
1472.71	160
1478.07	154
1483.42	142
1488.77	126
1494.11	122
1499.45	132
1504.78	116
1510.11	122
1515.43	112
1520.74	108
1526.05	116
1531.36	106
1536.66	116
1541.95	108
1547.24	110
1552.52	118
1557.8	118
1563.08	132
1568.35	114
1573.61	136
1578.87	156
1584.12	182
1589.37	256
1594.61	366
1599.85	482
1605.08	458
1610.31	378
1615.53	264
1620.75	176
1625.96	130
1631.17	110
1636.37	100
1641.57	92
1646.76	86
1651.95	82
1657.13	78
1662.31	82
1667.48	80
1672.65	84
1677.81	80
1682.97	80
1688.12	78
1693.27	90
1698.41	80
1702.26	84

File: ps-ppo-6jan25-0,0000-map2_Y03_X01.txt
204.377	400
211.048	338
217.712	350
224.369	490
231.019	942
237.661	956
244.297	658
250.924	426
257.546	280
264.16	202
270.766	178
277.365	202
283.958	246
290.543	382
297.121	448
303.693	338
310.256	270
316.813	228
323.362	230
329.905	268
336.441	262
342.969	230
349.491	218
356.006	232
362.513	196
369.014	192
375.508	200
381.994	152
388.473	144
394.947	138
401.412	136
407.871	156
414.323	212
420.768	174
427.206	110
433.637	106
440.062	86
446.479	90
452.89	88
459.293	82
465.691	118
472.081	162
478.463	244
484.84	296
491.21	164
497.573	122
503.929	104
510.279	160
516.621	182
522.957	164
529.287	234
535.609	420
541.925	414
548.234	226
554.536	204
560.832	428
567.12	1494
573.403	2066
579.679	498
585.948	352
592.211	276
598.466	208
604.715	120
610.958	94
617.194	92
623.424	106
629.647	138
635.864	160
642.074	144
648.276	102
654.473	92
660.664	72
666.847	70
673.025	64
679.195	62
685.36	68
691.517	70
697.669	60
703.814	72
709.953	74
716.085	110
722.21	80
728.33	72
734.443	82
740.549	94
746.65	140
752.743	132
758.831	108
764.912	76
770.986	70
777.055	88
783.117	78
789.173	74
795.222	64
801.265	68
807.302	84
813.333	72
819.357	88
825.376	130
831.387	488
837.392	260
843.392	112
849.386	100
855.372	90
861.353	78
867.328	72
873.296	68
879.258	64
885.214	66
891.164	60
897.108	56
903.046	58
908.977	58
914.903	58
920.822	52
926.735	62
932.643	70
938.543	82
944.439	94
950.328	152
956.21	284
962.088	390
967.958	230
973.824	146
979.682	92
985.534	74
991.382	80
997.222	68
1003.06	70
1008.89	58
1014.71	72
1020.53	68
1026.34	86
1032.14	108
1037.94	102
1043.73	78
1049.52	70
1055.3	68
1061.08	62
1066.85	68
1072.61	66
1078.37	66
1084.12	64
1089.87	64
1095.61	66
1101.34	74
1107.07	146
1112.8	372
1118.51	152
1124.22	110
1129.93	80
1135.63	82
1141.32	100
1147.01	76
1152.69	74
1158.37	86
1164.04	92
1169.71	76
1175.37	102
1181.02	150
1186.67	242
1192.31	186
1197.95	162
1203.58	172
1209.2	134
1214.82	90
1220.44	94
1226.05	114
1231.65	128
1237.25	100
1242.84	92
1248.42	86
1254	84
1259.58	94
1265.15	82
1270.71	104
1276.27	102
1281.82	126
1287.37	164
1292.91	196
1298.45	362
1303.98	840
1309.5	522
1315.02	268
1320.53	196
1326.04	182
1331.54	174
1337.04	152
1342.53	148
1348.02	160
1353.5	162
1358.98	156
1364.45	150
1369.91	178
1375.37	350
1380.82	430
1386.27	292
1391.71	152
1397.15	142
1402.58	136
1408.01	138
1413.43	138
1418.85	172
1424.26	184
1429.66	192
1435.06	204
1440.46	218
1445.85	214
1451.23	182
1456.61	162
1461.98	162
1467.35	144
1472.71	154
1478.07	144
1483.42	140
1488.77	116
1494.11	128
1499.45	120
1504.78	122
1510.11	110
1515.43	112
1520.74	124
1526.05	110
1531.36	104
1536.66	108
1541.95	112
1547.24	116
1552.52	106
1557.8	110
1563.08	116
1568.35	126
1573.61	128
1578.87	156
1584.12	174
1589.37	230
1594.61	356
1599.85	472
1605.08	480
1610.31	338
1615.53	258
1620.75	178
1625.96	130
1631.17	106
1636.37	102
1641.57	94
1646.76	90
1651.95	82
1657.13	80
1662.31	80
1667.48	78
1672.65	76
1677.81	80
1682.97	86
1688.12	76
1693.27	88
1698.41	86
1702.26	74

File: ps-ppo-6jan25-0,0000-map2_Y03_X02.txt
204.377	376
211.048	346
217.712	330
224.369	468
231.019	918
237.661	922
244.297	636
250.924	398
257.546	244
264.16	210
270.766	174
277.365	172
283.958	230
290.543	362
297.121	430
303.693	320
310.256	262
316.813	240
323.362	224
329.905	246
336.441	252
342.969	210
349.491	206
356.006	202
362.513	206
369.014	208
375.508	190
381.994	146
388.473	140
394.947	132
401.412	128
407.871	170
414.323	220
420.768	160
427.206	130
433.637	96
440.062	82
446.479	72
452.89	76
459.293	86
465.691	104
472.081	144
478.463	226
484.84	272
491.21	170
497.573	124
503.929	100
510.279	168
516.621	168
522.957	148
529.287	228
535.609	410
541.925	420
548.234	220
554.536	208
560.832	424
567.12	1432
573.403	1970
579.679	510
585.948	320
592.211	272
598.466	206
604.715	108
610.958	88
617.194	98
623.424	116
629.647	140
635.864	162
642.074	122
648.276	112
654.473	86
660.664	70
666.847	64
673.025	54
679.195	62
685.36	62
691.517	56
697.669	54
703.814	68
709.953	78
716.085	88
722.21	74
728.33	76
734.443	88
740.549	88
746.65	134
752.743	124
758.831	96
764.912	72
770.986	76
777.055	78
783.117	80
789.173	64
795.222	56
801.265	66
807.302	76
813.333	72
819.357	88
825.376	140
831.387	472
837.392	236
843.392	104
849.386	92
855.372	78
861.353	76
867.328	64
873.296	66
879.258	60
885.214	64
891.164	64
897.108	60
903.046	56
908.977	56
914.903	60
920.822	60
926.735	64
932.643	66
938.543	66
944.439	90
950.328	140
956.21	304
962.088	352
967.958	236
973.824	136
979.682	80
985.534	80
991.382	78
997.222	70
1003.06	66
1008.89	60
1014.71	64
1020.53	78
1026.34	82
1032.14	98
1037.94	94
1043.73	76
1049.52	76
1055.3	70
1061.08	68
1066.85	64
1072.61	62
1078.37	64
1084.12	66
1089.87	72
1095.61	66
1101.34	78
1107.07	138
1112.8	344
1118.51	158
1124.22	108
1129.93	86
1135.63	84
1141.32	82
1147.01	78
1152.69	76
1158.37	78
1164.04	96
1169.71	86
1175.37	98
1181.02	146
1186.67	242
1192.31	168
1197.95	160
1203.58	168
1209.2	136
1214.82	90
1220.44	92
1226.05	114
1231.65	132
1237.25	98
1242.84	86
1248.42	92
1254	84
1259.58	88
1265.15	96
1270.71	104
1276.27	102
1281.82	128
1287.37	162
1292.91	188
1298.45	356
1303.98	746
1309.5	504
1315.02	274
1320.53	192
1326.04	182
1331.54	176
1337.04	152
1342.53	150
1348.02	160
1353.5	164
1358.98	144
1364.45	152
1369.91	184
1375.37	338
1380.82	424
1386.27	270
1391.71	164
1397.15	142
1402.58	140
1408.01	122
1413.43	132
1418.85	160
1424.26	182
1429.66	184
1435.06	204
1440.46	220
1445.85	192
1451.23	164
1456.61	156
1461.98	154
1467.35	150
1472.71	146
1478.07	138
1483.42	132
1488.77	124
1494.11	122
1499.45	114
1504.78	112
1510.11	110
1515.43	116
1520.74	112
1526.05	118
1531.36	112
1536.66	100
1541.95	102
1547.24	110
1552.52	110
1557.8	102
1563.08	114
1568.35	110
1573.61	122
1578.87	164
1584.12	186
1589.37	234
1594.61	342
1599.85	456
1605.08	462
1610.31	336
1615.53	228
1620.75	158
1625.96	126
1631.17	106
1636.37	90
1641.57	90
1646.76	88
1651.95	90
1657.13	82
1662.31	82
1667.48	90
1672.65	72
1677.81	80
1682.97	72
1688.12	80
1693.27	74
1698.41	78
1702.26	82

File: ps-ppo-6jan25-0,0000-map2_Y03_X05.txt
204.377	380
211.048	332
217.712	324
224.369	472
231.019	888
237.661	890
244.297	622
250.924	414
257.546	268
264.16	178
270.766	170
277.365	186
283.958	214
290.543	358
297.121	420
303.693	326
310.256	272
316.813	230
323.362	230
329.905	252
336.441	254
342.969	218
349.491	214
356.006	214
362.513	204
369.014	202
375.508	192
381.994	130
388.473	132
394.947	122
401.412	124
407.871	166
414.323	204
420.768	158
427.206	118
433.637	86
440.062	84
446.479	80
452.89	84
459.293	78
465.691	104
472.081	152
478.463	220
484.84	302
491.21	170
497.573	110
503.929	100
510.279	164
516.621	162
522.957	144
529.287	234
535.609	390
541.925	390
548.234	204
554.536	206
560.832	386
567.12	1390
573.403	1952
579.679	496
585.948	318
592.211	262
598.466	200
604.715	116
610.958	88
617.194	92
623.424	106
629.647	132
635.864	154
642.074	120
648.276	90
654.473	82
660.664	72
666.847	62
673.025	52
679.195	56
685.36	66
691.517	58
697.669	60
703.814	60
709.953	80
716.085	98
722.21	76
728.33	76
734.443	68
740.549	96
746.65	150
752.743	114
758.831	90
764.912	66
770.986	70
777.055	74
783.117	80
789.173	70
795.222	74
801.265	64
807.302	74
813.333	76
819.357	84
825.376	128
831.387	482
837.392	244
843.392	92
849.386	104
855.372	92
861.353	76
867.328	70
873.296	62
879.258	62
885.214	54
891.164	54
897.108	54
903.046	54
908.977	62
914.903	56
920.822	56
926.735	56
932.643	66
938.543	76
944.439	92
950.328	138
956.21	298
962.088	350
967.958	234
973.824	132
979.682	70
985.534	74
991.382	76
997.222	76
1003.06	66
1008.89	64
1014.71	68
1020.53	82
1026.34	84
1032.14	92
1037.94	94
1043.73	80
1049.52	60
1055.3	68
1061.08	66
1066.85	58
1072.61	64
1078.37	60
1084.12	66
1089.87	64
1095.61	70
1101.34	86
1107.07	152
1112.8	348
1118.51	152
1124.22	98
1129.93	84
1135.63	84
1141.32	84
1147.01	78
1152.69	72
1158.37	84
1164.04	98
1169.71	76
1175.37	104
1181.02	146
1186.67	238
1192.31	166
1197.95	146
1203.58	180
1209.2	126
1214.82	90
1220.44	88
1226.05	102
1231.65	124
1237.25	94
1242.84	86
1248.42	88
1254	88
1259.58	86
1265.15	92
1270.71	96
1276.27	104
1281.82	124
1287.37	158
1292.91	192
1298.45	318
1303.98	774
1309.5	514
1315.02	242
1320.53	198
1326.04	190
1331.54	160
1337.04	134
1342.53	138
1348.02	164
1353.5	176
1358.98	156
1364.45	154
1369.91	164
1375.37	338
1380.82	430
1386.27	274
1391.71	164
1397.15	136
1402.58	130
1408.01	136
1413.43	136
1418.85	160
1424.26	170
1429.66	192
1435.06	196
1440.46	224
1445.85	200
1451.23	174
1456.61	158
1461.98	154
1467.35	152
1472.71	146
1478.07	152
1483.42	134
1488.77	118
1494.11	118
1499.45	120
1504.78	120
1510.11	110
1515.43	116
1520.74	110
1526.05	106
1531.36	100
1536.66	110
1541.95	102
1547.24	114
1552.52	120
1557.8	112
1563.08	106
1568.35	110
1573.61	118
1578.87	140
1584.12	176
1589.37	236
1594.61	348
1599.85	458
1605.08	466
1610.31	358
1615.53	252
1620.75	156
1625.96	124
1631.17	106
1636.37	94
1641.57	96
1646.76	96
1651.95	80
1657.13	88
1662.31	80
1667.48	78
1672.65	76
1677.81	78
1682.97	74
1688.12	84
1693.27	84
1698.41	72
1702.26	82

File: ps-ppo-6jan25-0,0000-map2_Y03_X08.txt
204.377	418
211.048	364
217.712	340
224.369	490
231.019	924
237.661	948
244.297	662
250.924	414
257.546	280
264.16	212
270.766	194
277.365	200
283.958	232
290.543	368
297.121	438
303.693	346
310.256	268
316.813	236
323.362	244
329.905	262
336.441	264
342.969	222
349.491	218
356.006	222
362.513	194
369.014	198
375.508	186
381.994	164
388.473	138
394.947	130
401.412	138
407.871	168
414.323	230
420.768	170
427.206	118
433.637	98
440.062	86
446.479	74
452.89	76
459.293	86
465.691	100
472.081	158
478.463	248
484.84	304
491.21	176
497.573	114
503.929	104
510.279	158
516.621	180
522.957	148
529.287	234
535.609	418
541.925	406
548.234	238
554.536	214
560.832	424
567.12	1506
573.403	2102
579.679	516
585.948	366
592.211	288
598.466	210
604.715	130
610.958	90
617.194	94
623.424	112
629.647	142
635.864	152
642.074	136
648.276	100
654.473	82
660.664	78
666.847	62
673.025	64
679.195	70
685.36	60
691.517	66
697.669	56
703.814	66
709.953	82
716.085	102
722.21	78
728.33	72
734.443	88
740.549	98
746.65	142
752.743	122
758.831	90
764.912	76
770.986	76
777.055	76
783.117	72
789.173	66
795.222	64
801.265	66
807.302	84
813.333	78
819.357	84
825.376	138
831.387	488
837.392	262
843.392	100
849.386	96
855.372	88
861.353	76
867.328	72
873.296	64
879.258	64
885.214	64
891.164	62
897.108	62
903.046	54
908.977	58
914.903	54
920.822	58
926.735	60
932.643	66
938.543	74
944.439	92
950.328	158
956.21	308
962.088	386
967.958	250
973.824	134
979.682	88
985.534	72
991.382	78
997.222	68
1003.06	66
1008.89	64
1014.71	76
1020.53	74
1026.34	92
1032.14	98
1037.94	92
1043.73	78
1049.52	76
1055.3	66
1061.08	64
1066.85	68
1072.61	64
1078.37	66
1084.12	68
1089.87	68
1095.61	62
1101.34	82
1107.07	138
1112.8	370
1118.51	156
1124.22	108
1129.93	86
1135.63	88
1141.32	80
1147.01	80
1152.69	88
1158.37	90
1164.04	100
1169.71	90
1175.37	106
1181.02	148
1186.67	256
1192.31	160
1197.95	164
1203.58	192
1209.2	134
1214.82	94
1220.44	90
1226.05	112
1231.65	132
1237.25	100
1242.84	92
1248.42	86
1254	88
1259.58	90
1265.15	104
1270.71	100
1276.27	104
1281.82	134
1287.37	148
1292.91	190
1298.45	368
1303.98	790
1309.5	546
1315.02	274
1320.53	184
1326.04	174
1331.54	176
1337.04	144
1342.53	144
1348.02	172
1353.5	178
1358.98	154
1364.45	156
1369.91	176
1375.37	354
1380.82	434
1386.27	278
1391.71	166
1397.15	160
1402.58	132
1408.01	136
1413.43	148
1418.85	164
1424.26	174
1429.66	184
1435.06	198
1440.46	216
1445.85	218
1451.23	184
1456.61	178
1461.98	158
1467.35	152
1472.71	162
1478.07	156
1483.42	138
1488.77	126
1494.11	120
1499.45	112
1504.78	110
1510.11	112
1515.43	110
1520.74	112
1526.05	100
1531.36	114
1536.66	102
1541.95	116
1547.24	112
1552.52	120
1557.8	120
1563.08	116
1568.35	124
1573.61	142
1578.87	138
1584.12	180
1589.37	234
1594.61	356
1599.85	470
1605.08	478
1610.31	374
1615.53	256
1620.75	168
1625.96	130
1631.17	108
1636.37	110
1641.57	96
1646.76	94
1651.95	90
1657.13	88
1662.31	78
1667.48	80
1672.65	80
1677.81	84
1682.97	80
1688.12	80
1693.27	90
1698.41	84
1702.26	80

File: ps-ppo-6jan25-0,0000-map2_Y03_X09.txt
204.377	384
211.048	366
217.712	350
224.369	494
231.019	932
237.661	932
244.297	656
250.924	428
257.546	278
264.16	214
270.766	196
277.365	184
283.958	236
290.543	372
297.121	464
303.693	354
310.256	256
316.813	240
323.362	254
329.905	266
336.441	270
342.969	228
349.491	206
356.006	220
362.513	184
369.014	192
375.508	190
381.994	140
388.473	146
394.947	136
401.412	132
407.871	168
414.323	222
420.768	166
427.206	114
433.637	102
440.062	88
446.479	80
452.89	82
459.293	88
465.691	112
472.081	160
478.463	248
484.84	310
491.21	182
497.573	110
503.929	100
510.279	172
516.621	176
522.957	158
529.287	250
535.609	418
541.925	438
548.234	222
554.536	224
560.832	442
567.12	1508
573.403	2056
579.679	514
585.948	314
592.211	278
598.466	220
604.715	124
610.958	88
617.194	94
623.424	96
629.647	132
635.864	148
642.074	124
648.276	96
654.473	88
660.664	78
666.847	66
673.025	62
679.195	66
685.36	72
691.517	62
697.669	60
703.814	64
709.953	84
716.085	100
722.21	88
728.33	76
734.443	86
740.549	92
746.65	152
752.743	126
758.831	96
764.912	72
770.986	66
777.055	80
783.117	84
789.173	70
795.222	70
801.265	64
807.302	68
813.333	70
819.357	86
825.376	144
831.387	530
837.392	246
843.392	108
849.386	88
855.372	82
861.353	76
867.328	74
873.296	64
879.258	64
885.214	58
891.164	58
897.108	58
903.046	62
908.977	56
914.903	54
920.822	54
926.735	58
932.643	66
938.543	72
944.439	98
950.328	152
956.21	300
962.088	376
967.958	244
973.824	130
979.682	94
985.534	72
991.382	82
997.222	68
1003.06	70
1008.89	70
1014.71	60
1020.53	78
1026.34	88
1032.14	100
1037.94	88
1043.73	90
1049.52	70
1055.3	70
1061.08	70
1066.85	60
1072.61	60
1078.37	60
1084.12	60
1089.87	64
1095.61	66
1101.34	90
1107.07	150
1112.8	358
1118.51	148
1124.22	108
1129.93	86
1135.63	82
1141.32	88
1147.01	80
1152.69	80
1158.37	82
1164.04	100
1169.71	84
1175.37	102
1181.02	146
1186.67	254
1192.31	188
1197.95	166
1203.58	172
1209.2	134
1214.82	92
1220.44	92
1226.05	120
1231.65	128
1237.25	94
1242.84	86
1248.42	90
1254	84
1259.58	96
1265.15	94
1270.71	90
1276.27	112
1281.82	122
1287.37	154
1292.91	198
1298.45	358
1303.98	782
1309.5	546
1315.02	266
1320.53	198
1326.04	192
1331.54	170
1337.04	156
1342.53	158
1348.02	170
1353.5	160
1358.98	154
1364.45	156
1369.91	182
1375.37	360
1380.82	428
1386.27	276
1391.71	168
1397.15	136
1402.58	138
1408.01	126
1413.43	148
1418.85	160
1424.26	190
1429.66	190
1435.06	206
1440.46	200
1445.85	194
1451.23	168
1456.61	166
1461.98	154
1467.35	154
1472.71	152
1478.07	146
1483.42	132
1488.77	122
1494.11	114
1499.45	116
1504.78	104
1510.11	108
1515.43	110
1520.74	110
1526.05	104
1531.36	116
1536.66	110
1541.95	110
1547.24	110
1552.52	112
1557.8	110
1563.08	114
1568.35	122
1573.61	130
1578.87	160
1584.12	182
1589.37	246
1594.61	350
1599.85	466
1605.08	484
1610.31	360
1615.53	278
1620.75	170
1625.96	132
1631.17	110
1636.37	90
1641.57	94
1646.76	92
1651.95	92
1657.13	88
1662.31	82
1667.48	82
1672.65	80
1677.81	78
1682.97	78
1688.12	82
1693.27	82
1698.41	82
1702.26	76

File: ps-ppo-6jan25-0,0000-map2_Y03_X10.txt
204.377	382
211.048	356
217.712	358
224.369	484
231.019	906
237.661	924
244.297	662
250.924	406
257.546	284
264.16	218
270.766	188
277.365	196
283.958	246
290.543	380
297.121	440
303.693	322
310.256	266
316.813	238
323.362	228
329.905	250
336.441	262
342.969	224
349.491	226
356.006	224
362.513	208
369.014	192
375.508	200
381.994	150
388.473	144
394.947	132
401.412	132
407.871	160
414.323	224
420.768	168
427.206	130
433.637	106
440.062	88
446.479	82
452.89	84
459.293	92
465.691	100
472.081	158
478.463	230
484.84	308
491.21	188
497.573	112
503.929	92
510.279	166
516.621	166
522.957	164
529.287	226
535.609	398
541.925	420
548.234	222
554.536	220
560.832	418
567.12	1500
573.403	2028
579.679	500
585.948	354
592.211	264
598.466	208
604.715	116
610.958	102
617.194	100
623.424	108
629.647	136
635.864	172
642.074	132
648.276	110
654.473	84
660.664	66
666.847	64
673.025	64
679.195	62
685.36	66
691.517	58
697.669	60
703.814	66
709.953	88
716.085	104
722.21	78
728.33	86
734.443	78
740.549	96
746.65	144
752.743	124
758.831	104
764.912	72
770.986	72
777.055	78
783.117	82
789.173	74
795.222	62
801.265	66
807.302	78
813.333	70
819.357	84
825.376	136
831.387	522
837.392	274
843.392	104
849.386	94
855.372	94
861.353	86
867.328	74
873.296	70
879.258	60
885.214	62
891.164	60
897.108	58
903.046	56
908.977	62
914.903	58
920.822	60
926.735	64
932.643	68
938.543	72
944.439	98
950.328	158
956.21	296
962.088	380
967.958	240
973.824	134
979.682	82
985.534	78
991.382	74
997.222	68
1003.06	62
1008.89	62
1014.71	68
1020.53	76
1026.34	80
1032.14	90
1037.94	96
1043.73	84
1049.52	70
1055.3	70
1061.08	62
1066.85	68
1072.61	68
1078.37	68
1084.12	66
1089.87	70
1095.61	74
1101.34	80
1107.07	144
1112.8	384
1118.51	160
1124.22	98
1129.93	82
1135.63	78
1141.32	92
1147.01	76
1152.69	82
1158.37	88
1164.04	94
1169.71	84
1175.37	106
1181.02	142
1186.67	236
1192.31	166
1197.95	164
1203.58	172
1209.2	136
1214.82	94
1220.44	102
1226.05	116
1231.65	132
1237.25	100
1242.84	80
1248.42	84
1254	86
1259.58	86
1265.15	94
1270.71	96
1276.27	102
1281.82	122
1287.37	140
1292.91	196
1298.45	344
1303.98	764
1309.5	532
1315.02	276
1320.53	198
1326.04	184
1331.54	178
1337.04	158
1342.53	158
1348.02	166
1353.5	164
1358.98	156
1364.45	150
1369.91	190
1375.37	348
1380.82	430
1386.27	278
1391.71	160
1397.15	146
1402.58	140
1408.01	134
1413.43	148
1418.85	160
1424.26	172
1429.66	194
1435.06	206
1440.46	230
1445.85	198
1451.23	186
1456.61	160
1461.98	170
1467.35	146
1472.71	146
1478.07	148
1483.42	146
1488.77	124
1494.11	118
1499.45	132
1504.78	116
1510.11	118
1515.43	120
1520.74	104
1526.05	112
1531.36	100
1536.66	110
1541.95	114
1547.24	120
1552.52	112
1557.8	112
1563.08	116
1568.35	126
1573.61	136
1578.87	152
1584.12	192
1589.37	254
1594.61	342
1599.85	450
1605.08	454
1610.31	346
1615.53	250
1620.75	174
1625.96	122
1631.17	110
1636.37	94
1641.57	92
1646.76	82
1651.95	88
1657.13	74
1662.31	88
1667.48	80
1672.65	84
1677.81	80
1682.97	76
1688.12	76
1693.27	70
1698.41	86
1702.26	78