Folder: NRC_SU25_Spectral_Classification/Mixture_Classification/Jesse_Dataset_v2/Pure Raman/Polypropylene oxide/785nm (part 2)

File: ps-ppo-6jan25-0,0000-map2_Y01_X04.txt
204.377	386
211.048	342
217.712	344
224.369	472
231.019	912
237.661	938
244.297	638
250.924	410
257.546	260
264.16	206
270.766	192
277.365	186
283.958	242
290.543	380
297.121	434
303.693	320
310.256	280
316.813	238
323.362	228
329.905	254
336.441	248
342.969	222
349.491	198
356.006	214
362.513	180
369.014	206
375.508	192
381.994	160
388.473	134
394.947	132
401.412	130
407.871	152
414.323	222
420.768	164
427.206	122
433.637	110
440.062	90
446.479	80
452.89	72
459.293	86
465.691	106
472.081	154
478.463	222
484.84	298
491.21	186
497.573	118
503.929	98
510.279	166
516.621	162
522.957	152
529.287	232
535.609	410
541.925	424
548.234	218
554.536	200
560.832	412
567.12	1472
573.403	2022
579.679	508
585.948	338
592.211	274
598.466	200
604.715	116
610.958	84
617.194	98
623.424	114
629.647	132
635.864	154
642.074	128
648.276	108
654.473	86
660.664	82
666.847	64
673.025	66
679.195	68
685.36	66
691.517	62
697.669	60
703.814	66
709.953	76
716.085	88
722.21	70
728.33	82
734.443	82
740.549	98
746.65	140
752.743	122
758.831	88
764.912	66
770.986	68
777.055	76
783.117	78
789.173	62
795.222	70
801.265	74
807.302	72
813.333	74
819.357	86
825.376	134
831.387	498
837.392	254
843.392	106
849.386	90
855.372	86
861.353	76
867.328	68
873.296	64
879.258	62
885.214	58
891.164	60
897.108	64
903.046	54
908.977	60
914.903	60
920.822	62
926.735	58
932.643	70
938.543	74
944.439	88
950.328	148
956.21	276
962.088	368
967.958	220
973.824	134
979.682	86
985.534	76
991.382	78
997.222	64
1003.06	66
1008.89	66
1014.71	70
1020.53	80
1026.34	82
1032.14	106
1037.94	94
1043.73	76
1049.52	66
1055.3	70
1061.08	62
1066.85	66
1072.61	60
1078.37	56
1084.12	66
1089.87	64
1095.61	68
1101.34	86
1107.07	140
1112.8	364
1118.51	156
1124.22	96
1129.93	84
1135.63	84
1141.32	84
1147.01	78
1152.69	82
1158.37	86
1164.04	96
1169.71	86
1175.37	102
1181.02	152
1186.67	242
1192.31	178
1197.95	154
1203.58	174
1209.2	132
1214.82	90
1220.44	88
1226.05	120
1231.65	130
1237.25	104
1242.84	88
1248.42	88
1254	88
1259.58	90
1265.15	94
1270.71	96
1276.27	108
1281.82	144
1287.37	162
1292.91	200
1298.45	334
1303.98	792
1309.5	546
1315.02	274
1320.53	196
1326.04	192
1331.54	164
1337.04	154
1342.53	152
1348.02	170
1353.5	164
1358.98	158
1364.45	148
1369.91	182
1375.37	356
1380.82	424
1386.27	290
1391.71	154
1397.15	158
1402.58	144
1408.01	146
1413.43	142
1418.85	158
1424.26	174
1429.66	186
1435.06	202
1440.46	224
1445.85	192
1451.23	182
1456.61	160
1461.98	164
1467.35	156
1472.71	146
1478.07	150
1483.42	150
1488.77	134
1494.11	124
1499.45	100
1504.78	116
1510.11	116
1515.43	106
1520.74	110
1526.05	106
1531.36	104
1536.66	112
1541.95	110
1547.24	102
1552.52	110
1557.8	112
1563.08	102
1568.35	114
1573.61	134
1578.87	146
1584.12	170
1589.37	244
1594.61	340
1599.85	500
1605.08	468
1610.31	360
1615.53	250
1620.75	178
1625.96	132
1631.17	104
1636.37	104
1641.57	98
1646.76	88
1651.95	82
1657.13	80
1662.31	92
1667.48	86
1672.65	90
1677.81	86
1682.97	82
1688.12	82
1693.27	78
1698.41	74
1702.26	80

File: ps-ppo-6jan25-0,0000-map2_Y01_X05.txt
204.377	380
211.048	350
217.712	340
224.369	474
231.019	886
237.661	918
244.297	624
250.924	406
257.546	256
264.16	206
270.766	166
277.365	176
283.958	230
290.543	336
297.121	412
303.693	332
310.256	258
316.813	234
323.362	230
329.905	244
336.441	262
342.969	208
349.491	212
356.006	208
362.513	180
369.014	194
375.508	184
381.994	144
388.473	136
394.947	128
401.412	128
407.871	156
414.323	210
420.768	160
427.206	120
433.637	92
440.062	82
446.479	72
452.89	82
459.293	80
465.691	104
472.081	150
478.463	210
484.84	284
491.21	176
497.573	110
503.929	94
510.279	170
516.621	178
522.957	150
529.287	236
535.609	396
541.925	414
548.234	226
554.536	196
560.832	382
567.12	1434
573.403	1968
579.679	504
585.948	328
592.211	266
598.466	218
604.715	112
610.958	96
617.194	100
623.424	112
629.647	124
635.864	154
642.074	122
648.276	100
654.473	86
660.664	78
666.847	68
673.025	60
679.195	56
685.36	68
691.517	60
697.669	56
703.814	58
709.953	84
716.085	98
722.21	76
728.33	78
734.443	72
740.549	88
746.65	148
752.743	110
758.831	88
764.912	64
770.986	64
777.055	68
783.117	76
789.173	74
795.222	62
801.265	62
807.302	74
813.333	74
819.357	84
825.376	130
831.387	482
837.392	252
843.392	106
849.386	92
855.372	86
861.353	76
867.328	64
873.296	66
879.258	62
885.214	52
891.164	62
897.108	54
903.046	58
908.977	54
914.903	56
920.822	52
926.735	60
932.643	64
938.543	66
944.439	92
950.328	148
956.21	302
962.088	368
967.958	230
973.824	134
979.682	88
985.534	68
991.382	78
997.222	66
1003.06	64
1008.89	60
1014.71	70
1020.53	66
1026.34	90
1032.14	100
1037.94	94
1043.73	78
1049.52	60
1055.3	66
1061.08	62
1066.85	58
1072.61	56
1078.37	66
1084.12	64
1089.87	68
1095.61	70
1101.34	76
1107.07	142
1112.8	356
1118.51	172
1124.22	102
1129.93	88
1135.63	82
1141.32	88
1147.01	84
1152.69	68
1158.37	88
1164.04	94
1169.71	82
1175.37	96
1181.02	138
1186.67	216
1192.31	156
1197.95	138
1203.58	164
1209.2	132
1214.82	88
1220.44	94
1226.05	118
1231.65	128
1237.25	92
1242.84	86
1248.42	84
1254	84
1259.58	84
1265.15	92
1270.71	96
1276.27	98
1281.82	132
1287.37	164
1292.91	190
1298.45	334
1303.98	724
1309.5	510
1315.02	270
1320.53	196
1326.04	182
1331.54	166
1337.04	152
1342.53	164
1348.02	144
1353.5	160
1358.98	154
1364.45	150
1369.91	186
1375.37	328
1380.82	412
1386.27	302
1391.71	164
1397.15	148
1402.58	124
1408.01	118
1413.43	136
1418.85	164
1424.26	182
1429.66	184
1435.06	202
1440.46	214
1445.85	206
1451.23	172
1456.61	158
1461.98	156
1467.35	166
1472.71	148
1478.07	138
1483.42	142
1488.77	134
1494.11	110
1499.45	114
1504.78	128
1510.11	110
1515.43	114
1520.74	106
1526.05	110
1531.36	108
1536.66	116
1541.95	116
1547.24	114
1552.52	112
1557.8	114
1563.08	110
1568.35	118
1573.61	128
1578.87	146
1584.12	174
1589.37	242
1594.61	340
1599.85	450
1605.08	440
1610.31	358
1615.53	260
1620.75	174
1625.96	126
1631.17	120
1636.37	96
1641.57	90
1646.76	90
1651.95	84
1657.13	86
1662.31	76
1667.48	76
1672.65	80
1677.81	82
1682.97	80
1688.12	74
1693.27	86
1698.41	72
1702.26	80

File: ps-ppo-6jan25-0,0000-map2_Y01_X08.txt
204.377	378
211.048	336
217.712	342
224.369	466
231.019	886
237.661	906
244.297	610
250.924	404
257.546	288
264.16	212
270.766	174
277.365	178
283.958	222
290.543	360
297.121	432
303.693	336
310.256	244
316.813	230
323.362	226
329.905	258
336.441	256
342.969	226
349.491	224
356.006	208
362.513	202
369.014	190
375.508	186
381.994	150
388.473	138
394.947	124
401.412	134
407.871	148
414.323	212
420.768	158
427.206	124
433.637	106
440.062	88
446.479	80
452.89	82
459.293	86
465.691	102
472.081	154
478.463	234
484.84	292
491.21	182
497.573	114
503.929	106
510.279	168
516.621	170
522.957	154
529.287	228
535.609	418
541.925	406
548.234	226
554.536	204
560.832	388
567.12	1448
573.403	1992
579.679	490
585.948	328
592.211	264
598.466	216
604.715	116
610.958	96
617.194	94
623.424	118
629.647	122
635.864	152
642.074	136
648.276	106
654.473	76
660.664	62
666.847	72
673.025	70
679.195	60
685.36	56
691.517	62
697.669	58
703.814	66
709.953	78
716.085	98
722.21	68
728.33	76
734.443	86
740.549	96
746.65	142
752.743	124
758.831	86
764.912	70
770.986	64
777.055	78
783.117	80
789.173	66
795.222	70
801.265	64
807.302	76
813.333	76
819.357	98
825.376	138
831.387	466
837.392	262
843.392	110
849.386	96
855.372	88
861.353	86
867.328	76
873.296	68
879.258	66
885.214	62
891.164	58
897.108	56
903.046	56
908.977	60
914.903	58
920.822	60
926.735	58
932.643	64
938.543	72
944.439	86
950.328	138
956.21	296
962.088	372
967.958	226
973.824	132
979.682	86
985.534	74
991.382	74
997.222	62
1003.06	64
1008.89	60
1014.71	66
1020.53	76
1026.34	92
1032.14	112
1037.94	100
1043.73	86
1049.52	68
1055.3	62
1061.08	62
1066.85	68
1072.61	60
1078.37	66
1084.12	60
1089.87	72
1095.61	72
1101.34	82
1107.07	126
1112.8	354
1118.51	158
1124.22	104
1129.93	88
1135.63	90
1141.32	90
1147.01	76
1152.69	66
1158.37	88
1164.04	98
1169.71	88
1175.37	92
1181.02	152
1186.67	246
1192.31	166
1197.95	152
1203.58	180
1209.2	122
1214.82	92
1220.44	90
1226.05	116
1231.65	136
1237.25	92
1242.84	82
1248.42	92
1254	82
1259.58	94
1265.15	94
1270.71	98
1276.27	112
1281.82	114
1287.37	156
1292.91	198
1298.45	328
1303.98	736
1309.5	530
1315.02	252
1320.53	204
1326.04	178
1331.54	174
1337.04	148
1342.53	150
1348.02	170
1353.5	168
1358.98	154
1364.45	160
1369.91	176
1375.37	344
1380.82	434
1386.27	258
1391.71	166
1397.15	140
1402.58	132
1408.01	152
1413.43	146
1418.85	160
1424.26	174
1429.66	178
1435.06	180
1440.46	222
1445.85	192
1451.23	182
1456.61	150
1461.98	152
1467.35	152
1472.71	150
1478.07	142
1483.42	136
1488.77	130
1494.11	116
1499.45	120
1504.78	116
1510.11	118
1515.43	106
1520.74	110
1526.05	114
1531.36	110
1536.66	118
1541.95	98
1547.24	112
1552.52	108
1557.8	112
1563.08	106
1568.35	122
1573.61	120
1578.87	150
1584.12	180
1589.37	238
1594.61	340
1599.85	470
1605.08	428
1610.31	368
1615.53	248
1620.75	174
1625.96	122
1631.17	104
1636.37	96
1641.57	86
1646.76	90
1651.95	90
1657.13	88
1662.31	86
1667.48	82
1672.65	80
1677.81	76
1682.97	76
1688.12	84
1693.27	82
1698.41	82
1702.26	84

File: ps-ppo-6jan25-0,0000-map2_Y01_X09.txt
204.377	398
211.048	336
217.712	352
224.369	484
231.019	884
237.661	912
244.297	646
250.924	400
257.546	274
264.16	210
270.766	186
277.365	176
283.958	236
290.543	382
297.121	416
303.693	336
310.256	252
316.813	232
323.362	232
329.905	250
336.441	262
342.969	234
349.491	216
356.006	218
362.513	198
369.014	202
375.508	174
381.994	164
388.473	138
394.947	122
401.412	126
407.871	148
414.323	214
420.768	156
427.206	116
433.637	102
440.062	92
446.479	74
452.89	82
459.293	82
465.691	98
472.081	160
478.463	234
484.84	290
491.21	188
497.573	112
503.929	94
510.279	160
516.621	180
522.957	160
529.287	232
535.609	434
541.925	428
548.234	206
554.536	208
560.832	408
567.12	1472
573.403	2014
579.679	530
585.948	330
592.211	264
598.466	220
604.715	118
610.958	94
617.194	94
623.424	104
629.647	134
635.864	150
642.074	132
648.276	102
654.473	86
660.664	74
666.847	66
673.025	70
679.195	60
685.36	64
691.517	58
697.669	62
703.814	66
709.953	82
716.085	100
722.21	78
728.33	80
734.443	70
740.549	92
746.65	142
752.743	120
758.831	90
764.912	64
770.986	70
777.055	76
783.117	80
789.173	70
795.222	60
801.265	70
807.302	74
813.333	72
819.357	90
825.376	136
831.387	496
837.392	256
843.392	100
849.386	96
855.372	96
861.353	82
867.328	76
873.296	66
879.258	62
885.214	64
891.164	60
897.108	56
903.046	60
908.977	54
914.903	54
920.822	56
926.735	60
932.643	60
938.543	68
944.439	94
950.328	158
956.21	290
962.088	374
967.958	244
973.824	134
979.682	82
985.534	66
991.382	76
997.222	70
1003.06	68
1008.89	64
1014.71	66
1020.53	76
1026.34	88
1032.14	92
1037.94	94
1043.73	82
1049.52	66
1055.3	62
1061.08	66
1066.85	62
1072.61	68
1078.37	54
1084.12	64
1089.87	62
1095.61	70
1101.34	86
1107.07	136
1112.8	354
1118.51	152
1124.22	110
1129.93	90
1135.63	80
1141.32	92
1147.01	76
1152.69	66
1158.37	78
1164.04	90
1169.71	90
1175.37	88
1181.02	134
1186.67	256
1192.31	170
1197.95	162
1203.58	162
1209.2	126
1214.82	90
1220.44	84
1226.05	116
1231.65	138
1237.25	100
1242.84	94
1248.42	84
1254	90
1259.58	90
1265.15	90
1270.71	92
1276.27	112
1281.82	136
1287.37	160
1292.91	188
1298.45	338
1303.98	784
1309.5	534
1315.02	270
1320.53	198
1326.04	178
1331.54	170
1337.04	146
1342.53	160
1348.02	146
1353.5	154
1358.98	150
1364.45	144
1369.91	182
1375.37	356
1380.82	432
1386.27	262
1391.71	152
1397.15	140
1402.58	142
1408.01	132
1413.43	142
1418.85	158
1424.26	188
1429.66	198
1435.06	200
1440.46	210
1445.85	190
1451.23	168
1456.61	172
1461.98	162
1467.35	150
1472.71	152
1478.07	146
1483.42	128
1488.77	130
1494.11	124
1499.45	108
1504.78	118
1510.11	118
1515.43	108
1520.74	120
1526.05	106
1531.36	122
1536.66	104
1541.95	106
1547.24	112
1552.52	108
1557.8	104
1563.08	108
1568.35	118
1573.61	126
1578.87	138
1584.12	176
1589.37	230
1594.61	340
1599.85	470
1605.08	438
1610.31	364
1615.53	258
1620.75	168
1625.96	130
1631.17	116
1636.37	104
1641.57	84
1646.76	96
1651.95	80
1657.13	86
1662.31	80
1667.48	78
1672.65	84
1677.81	80
1682.97	78
1688.12	86
1693.27	76
1698.41	80
1702.26	74

File: ps-ppo-6jan25-0,0000-map2_Y01_X10.txt
204.377	388
211.048	338
217.712	348
224.369	472
231.019	872
237.661	902
244.297	652
250.924	426
257.546	274
264.16	212
270.766	172
277.365	180
283.958	246
290.543	376
297.121	442
303.693	336
310.256	272
316.813	234
323.362	240
329.905	264
336.441	260
342.969	210
349.491	210
356.006	218
362.513	188
369.014	198
375.508	192
381.994	162
388.473	146
394.947	128
401.412	132
407.871	152
414.323	218
420.768	178
427.206	130
433.637	108
440.062	94
446.479	82
452.89	86
459.293	98
465.691	94
472.081	146
478.463	234
484.84	302
491.21	170
497.573	114
503.929	112
510.279	166
516.621	186
522.957	174
529.287	238
535.609	420
541.925	412
548.234	216
554.536	212
560.832	416
567.12	1458
573.403	2008
579.679	490
585.948	332
592.211	276
598.466	206
604.715	128
610.958	94
617.194	98
623.424	108
629.647	132
635.864	152
642.074	132
648.276	98
654.473	88
660.664	78
666.847	72
673.025	64
679.195	64
685.36	72
691.517	56
697.669	62
703.814	66
709.953	86
716.085	94
722.21	72
728.33	76
734.443	82
740.549	98
746.65	144
752.743	130
758.831	94
764.912	68
770.986	64
777.055	84
783.117	80
789.173	72
795.222	60
801.265	60
807.302	78
813.333	66
819.357	86
825.376	138
831.387	484
837.392	252
843.392	110
849.386	104
855.372	84
861.353	82
867.328	68
873.296	70
879.258	62
885.214	56
891.164	56
897.108	62
903.046	54
908.977	58
914.903	58
920.822	62
926.735	62
932.643	64
938.543	76
944.439	90
950.328	146
956.21	298
962.088	376
967.958	230
973.824	138
979.682	94
985.534	68
991.382	78
997.222	60
1003.06	64
1008.89	64
1014.71	62
1020.53	82
1026.34	80
1032.14	100
1037.94	96
1043.73	86
1049.52	68
1055.3	68
1061.08	62
1066.85	64
1072.61	56
1078.37	62
1084.12	70
1089.87	68
1095.61	74
1101.34	78
1107.07	148
1112.8	370
1118.51	154
1124.22	106
1129.93	88
1135.63	84
1141.32	92
1147.01	80
1152.69	72
1158.37	92
1164.04	92
1169.71	86
1175.37	106
1181.02	140
1186.67	250
1192.31	172
1197.95	160
1203.58	168
1209.2	126
1214.82	88
1220.44	92
1226.05	114
1231.65	126
1237.25	98
1242.84	86
1248.42	86
1254	82
1259.58	88
1265.15	98
1270.71	94
1276.27	112
1281.82	134
1287.37	148
1292.91	184
1298.45	344
1303.98	740
1309.5	526
1315.02	270
1320.53	202
1326.04	180
1331.54	168
1337.04	150
1342.53	154
1348.02	168
1353.5	152
1358.98	136
1364.45	150
1369.91	168
1375.37	342
1380.82	416
1386.27	272
1391.71	156
1397.15	150
1402.58	136
1408.01	132
1413.43	130
1418.85	162
1424.26	182
1429.66	190
1435.06	210
1440.46	214
1445.85	192
1451.23	180
1456.61	166
1461.98	158
1467.35	152
1472.71	152
1478.07	138
1483.42	128
1488.77	120
1494.11	122
1499.45	112
1504.78	128
1510.11	108
1515.43	112
1520.74	116
1526.05	116
1531.36	104
1536.66	116
1541.95	104
1547.24	110
1552.52	108
1557.8	106
1563.08	114
1568.35	124
1573.61	124
1578.87	156
1584.12	170
1589.37	234
1594.61	348
1599.85	454
1605.08	458
1610.31	352
1615.53	262
1620.75	162
1625.96	128
1631.17	116
1636.37	98
1641.57	92
1646.76	92
1651.95	84
1657.13	84
1662.31	84
1667.48	82
1672.65	78
1677.81	78
1682.97	84
1688.12	78
1693.27	80
1698.41	88
1702.26	80

File: ps-ppo-6jan25-0,0000-map2_Y02_X02.txt
204.377	392
211.048	354
217.712	328
224.369	510
231.019	914
237.661	934
244.297	670
250.924	388
257.546	278
264.16	206
270.766	184
277.365	182
283.958	236
290.543	386
297.121	454
303.693	330
310.256	264
316.813	238
323.362	240
329.905	270
336.441	246
342.969	226
349.491	216
356.006	234
362.513	182
369.014	188
375.508	196
381.994	164
388.473	126
394.947	122
401.412	126
407.871	160
414.323	232
420.768	172
427.206	118
433.637	104
440.062	86
446.479	86
452.89	82
459.293	86
465.691	110
472.081	166
478.463	240
484.84	290
491.21	184
497.573	118
503.929	106
510.279	168
516.621	186
522.957	154
529.287	236
535.609	426
541.925	426
548.234	226
554.536	212
560.832	410
567.12	1486
573.403	2032
579.679	532
585.948	334
592.211	286
598.466	212
604.715	128
610.958	94
617.194	94
623.424	108
629.647	138
635.864	164
642.074	138
648.276	104
654.473	80
660.664	74
666.847	66
673.025	64
679.195	62
685.36	66
691.517	50
697.669	62
703.814	66
709.953	76
716.085	96
722.21	78
728.33	80
734.443	84
740.549	96
746.65	146
752.743	126
758.831	88
764.912	76
770.986	74
777.055	82
783.117	78
789.173	74
795.222	56
801.265	66
807.302	68
813.333	78
819.357	84
825.376	138
831.387	520
837.392	252
843.392	104
849.386	98
855.372	84
861.353	78
867.328	72
873.296	62
879.258	60
885.214	60
891.164	52
897.108	60
903.046	54
908.977	58
914.903	50
920.822	58
926.735	64
932.643	68
938.543	72
944.439	92
950.328	152
956.21	314
962.088	368
967.958	232
973.824	138
979.682	80
985.534	74
991.382	76
997.222	70
1003.06	64
1008.89	62
1014.71	70
1020.53	78
1026.34	90
1032.14	106
1037.94	94
1043.73	86
1049.52	64
1055.3	74
1061.08	62
1066.85	62
1072.61	64
1078.37	64
1084.12	60
1089.87	70
1095.61	74
1101.34	78
1107.07	134
1112.8	370
1118.51	170
1124.22	110
1129.93	86
1135.63	92
1141.32	84
1147.01	86
1152.69	80
1158.37	86
1164.04	84
1169.71	80
1175.37	104
1181.02	152
1186.67	240
1192.31	176
1197.95	160
1203.58	184
1209.2	128
1214.82	96
1220.44	88
1226.05	112
1231.65	140
1237.25	92
1242.84	82
1248.42	86
1254	90
1259.58	90
1265.15	94
1270.71	98
1276.27	96
1281.82	140
1287.37	156
1292.91	196
1298.45	352
1303.98	784
1309.5	536
1315.02	268
1320.53	204
1326.04	190
1331.54	172
1337.04	152
1342.53	158
1348.02	174
1353.5	166
1358.98	142
1364.45	154
1369.91	178
1375.37	354
1380.82	444
1386.27	266
1391.71	162
1397.15	140
1402.58	140
1408.01	142
1413.43	136
1418.85	168
1424.26	180
1429.66	198
1435.06	224
1440.46	224
1445.85	210
1451.23	186
1456.61	162
1461.98	162
1467.35	150
1472.71	146
1478.07	150
1483.42	142
1488.77	120
1494.11	122
1499.45	116
1504.78	106
1510.11	118
1515.43	106
1520.74	108
1526.05	112
1531.36	118
1536.66	112
1541.95	122
1547.24	116
1552.52	106
1557.8	120
1563.08	114
1568.35	114
1573.61	118
1578.87	144
1584.12	162
1589.37	244
1594.61	354
1599.85	454
1605.08	490
1610.31	392
1615.53	254
1620.75	188
1625.96	132
1631.17	106
1636.37	102
1641.57	88
1646.76	86
1651.95	86
1657.13	80
1662.31	80
1667.48	82
1672.65	82
1677.81	82
1682.97	78
1688.12	90
1693.27	86
1698.41	80
1702.26	80

File: ps-ppo-6jan25-0,0000-map2_Y02_X04.txt
204.377	406
211.048	360
217.712	336
224.369	464
231.019	930
237.661	906
244.297	618
250.924	398
257.546	282
264.16	200
270.766	190
277.365	188
283.958	230
290.543	382
297.121	442
303.693	320
310.256	272
316.813	228
323.362	232
329.905	260
336.441	262
342.969	210
349.491	204
356.006	208
362.513	202
369.014	194
375.508	184
381.994	150
388.473	130
394.947	128
401.412	126
407.871	148
414.323	212
420.768	176
427.206	120
433.637	96
440.062	92
446.479	80
452.89	90
459.293	86
465.691	102
472.081	160
478.463	214
484.84	300
491.21	176
497.573	112
503.929	96
510.279	176
516.621	176
522.957	156
529.287	226
535.609	428
541.925	412
548.234	224
554.536	212
560.832	402
567.12	1474
573.403	2014
579.679	522
585.948	328
592.211	260
598.466	210
604.715	124
610.958	94
617.194	94
623.424	100
629.647	132
635.864	156
642.074	128
648.276	96
654.473	86
660.664	76
666.847	66
673.025	68
679.195	56
685.36	64
691.517	62
697.669	54
703.814	60
709.953	80
716.085	92
722.21	74
728.33	74
734.443	68
740.549	94
746.65	140
752.743	122
758.831	92
764.912	78
770.986	70
777.055	70
783.117	70
789.173	76
795.222	70
801.265	68
807.302	72
813.333	74
819.357	80
825.376	134
831.387	488
837.392	268
843.392	108
849.386	90
855.372	88
861.353	82
867.328	78
873.296	72
879.258	64
885.214	58
891.164	66
897.108	58
903.046	58
908.977	60
914.903	54
920.822	58
926.735	60
932.643	66
938.543	76
944.439	88
950.328	144
956.21	294
962.088	344
967.958	232
973.824	144
979.682	84
985.534	76
991.382	72
997.222	68
1003.06	66
1008.89	62
1014.71	66
1020.53	80
1026.34	80
1032.14	98
1037.94	88
1043.73	94
1049.52	72
1055.3	66
1061.08	72
1066.85	52
1072.61	58
1078.37	70
1084.12	64
1089.87	72
1095.61	72
1101.34	80
1107.07	152
1112.8	352
1118.51	156
1124.22	100
1129.93	88
1135.63	82
1141.32	90
1147.01	74
1152.69	74
1158.37	84
1164.04	92
1169.71	80
1175.37	98
1181.02	156
1186.67	250
1192.31	152
1197.95	158
1203.58	182
1209.2	138
1214.82	92
1220.44	90
1226.05	114
1231.65	130
1237.25	96
1242.84	94
1248.42	90
1254	88
1259.58	92
1265.15	92
1270.71	98
1276.27	100
1281.82	122
1287.37	150
1292.91	206
1298.45	340
1303.98	780
1309.5	522
1315.02	266
1320.53	200
1326.04	180
1331.54	172
1337.04	154
1342.53	148
1348.02	156
1353.5	170
1358.98	150
1364.45	138
1369.91	188
1375.37	344
1380.82	422
1386.27	246
1391.71	164
1397.15	144
1402.58	132
1408.01	136
1413.43	150
1418.85	162
1424.26	188
1429.66	174
1435.06	204
1440.46	220
1445.85	210
1451.23	172
1456.61	156
1461.98	156
1467.35	152
1472.71	156
1478.07	138
1483.42	134
1488.77	136
1494.11	124
1499.45	112
1504.78	110
1510.11	112
1515.43	112
1520.74	112
1526.05	110
1531.36	110
1536.66	110
1541.95	112
1547.24	104
1552.52	108
1557.8	108
1563.08	120
1568.35	118
1573.61	130
1578.87	148
1584.12	180
1589.37	242
1594.61	356
1599.85	446
1605.08	452
1610.31	334
1615.53	254
1620.75	182
1625.96	124
1631.17	120
1636.37	100
1641.57	90
1646.76	82
1651.95	82
1657.13	92
1662.31	84
1667.48	80
1672.65	80
1677.81	76
1682.97	82
1688.12	80
1693.27	84
1698.41	86
1702.26	76

File: ps-ppo-6jan25-0,0000-map2_Y02_X05.txt
204.377	378
211.048	326
217.712	336
224.369	472
231.019	902
237.661	894
244.297	634
250.924	394
257.546	260
264.16	200
270.766	182
277.365	182
283.958	218
290.543	364
297.121	442
303.693	340
310.256	262
316.813	232
323.362	216
329.905	258
336.441	254
342.969	220
349.491	214
356.006	208
362.513	188
369.014	186
375.508	198
381.994	148
388.473	130
394.947	116
401.412	114
407.871	160
414.323	216
420.768	160
427.206	130
433.637	104
440.062	88
446.479	78
452.89	80
459.293	72
465.691	108
472.081	152
478.463	212
484.84	282
491.21	174
497.573	120
503.929	102
510.279	162
516.621	162
522.957	160
529.287	230
535.609	402
541.925	418
548.234	210
554.536	208
560.832	402
567.12	1392
573.403	1972
579.679	494
585.948	332
592.211	272
598.466	214
604.715	122
610.958	96
617.194	88
623.424	110
629.647	134
635.864	166
642.074	132
648.276	106
654.473	82
660.664	68
666.847	66
673.025	54
679.195	62
685.36	62
691.517	56
697.669	58
703.814	66
709.953	82
716.085	98
722.21	76
728.33	74
734.443	76
740.549	82
746.65	142
752.743	124
758.831	92
764.912	70
770.986	72
777.055	74
783.117	80
789.173	70
795.222	64
801.265	66
807.302	74
813.333	76
819.357	76
825.376	128
831.387	486
837.392	256
843.392	104
849.386	86
855.372	86
861.353	80
867.328	76
873.296	62
879.258	64
885.214	56
891.164	54
897.108	52
903.046	58
908.977	56
914.903	60
920.822	58
926.735	60
932.643	60
938.543	74
944.439	94
950.328	142
956.21	292
962.088	356
967.958	216
973.824	130
979.682	82
985.534	66
991.382	80
997.222	60
1003.06	62
1008.89	66
1014.71	62
1020.53	74
1026.34	90
1032.14	96
1037.94	90
1043.73	86
1049.52	68
1055.3	62
1061.08	58
1066.85	64
1072.61	66
1078.37	60
1084.12	62
1089.87	64
1095.61	72
1101.34	76
1107.07	142
1112.8	342
1118.51	158
1124.22	98
1129.93	88
1135.63	86
1141.32	86
1147.01	82
1152.69	76
1158.37	80
1164.04	92
1169.71	76
1175.37	98
1181.02	132
1186.67	228
1192.31	158
1197.95	148
1203.58	182
1209.2	128
1214.82	96
1220.44	80
1226.05	112
1231.65	134
1237.25	94
1242.84	86
1248.42	84
1254	90
1259.58	84
1265.15	96
1270.71	96
1276.27	106
1281.82	142
1287.37	150
1292.91	196
1298.45	330
1303.98	764
1309.5	508
1315.02	268
1320.53	204
1326.04	188
1331.54	168
1337.04	158
1342.53	152
1348.02	154
1353.5	166
1358.98	142
1364.45	152
1369.91	176
1375.37	318
1380.82	430
1386.27	280
1391.71	156
1397.15	144
1402.58	138
1408.01	144
1413.43	134
1418.85	168
1424.26	180
1429.66	178
1435.06	202
1440.46	204
1445.85	184
1451.23	172
1456.61	156
1461.98	162
1467.35	158
1472.71	148
1478.07	146
1483.42	126
1488.77	140
1494.11	124
1499.45	118
1504.78	116
1510.11	102
1515.43	116
1520.74	112
1526.05	110
1531.36	112
1536.66	104
1541.95	102
1547.24	100
1552.52	110
1557.8	106
1563.08	112
1568.35	114
1573.61	124
1578.87	140
1584.12	186
1589.37	222
1594.61	358
1599.85	452
1605.08	430
1610.31	348
1615.53	234
1620.75	166
1625.96	126
1631.17	102
1636.37	102
1641.57	94
1646.76	74
1651.95	78
1657.13	86
1662.31	84
1667.48	84
1672.65	80
1677.81	80
1682.97	70
1688.12	72
1693.27	82
1698.41	78
1702.26	86