Folder: NRC_SU25_Spectral_Classification/Mixture_Classification/Jesse_Dataset_v2/Pure Raman/Polypropylene oxide/785nm

Note: README.md
# Spectral Classification Project

This repository contains implementations of various machine learning and deep learning methods for the **one-shot classification of chemical spectra**. The goal is to identify the **chemical identity** of an unknown **Raman spectrum** by finding the best match from a reference library of known spectra.

The project explores and compares **four distinct approaches**, inspired by the methods described in *[Halas et al., ACS Nano, 2023](https://doi.org/10.1021/acsnano.3c05510)*.


---

## Core Concept: Spectral Identification

The fundamental problem is to take a **high-dimensional spectrum** from an unknown sample and accurately identify it by comparing it against a **library of known spectra**. Each method in this repository tackles this problem through a different **feature extraction** and **similarity matching** strategy.

---

## Included Implementations

This repository includes four primary methods for spectral classification:

- `CaPSim` (Characteristic Peak Similarity)
- `CaPSim` with `k-NN` Classifier
- `PCA` (Principal Component Analysis) Classifier
- `Siamese Network` for One-Shot Learning

All methods assume the data is provided in **CSV format**, with one file for the **reference library** and one for the **query spectra**. The **last column** in each file should be named **`Label`** and contain the chemical identifier.

---

### 1. CaPSim (Characteristic Peak Similarity)
**Script:** `CaPSim.py`  
**Approach:** Local peak-based dot-product similarity

**Concept:**  
This method directly implements the approach described in the Halas et al. paper. It assumes that key information in a spectrum is concentrated in a few discrete **characteristic peaks (CPs)**.

**Workflow:**
- **Preprocessing:** Baseline correction and L2 normalization
- **Feature Definition:** Identify most frequent or intense peaks per class → class-specific CPs
- **Feature Extraction:** Extract maximum intensity around CPs for each query
- **Similarity Matching:** Compute mean dot-product (CaPSim score); assign query to class with highest score

---

### 2. CaPSim with k-NN Classifier
**Script:** `CaPSim_kNN.py`  
**Approach:** Local peak-based features with supervised classification

**Concept:**  
An extension of CaPSim that uses the same CP-based features but replaces dot-product similarity with a learned `k-Nearest Neighbors` classifier.

**Workflow:**
- **Preprocessing:** Same as baseline CaPSim
- **Feature Definition:** Global CP set = union of all class CPs
- **Feature Extraction:** Fixed-length feature vectors for all reference spectra
- **Training:** Train a `k-NN` model using cosine distance
- **Classification:** Predict query identity using trained model

---

### 3. PCA (Principal Component Analysis) Classifier
**Script:** `PCA_Classification.py`  
**Approach:** Global shape-based classification in PCA space

**Concept:**  
A benchmark method that uses global spectral shape via PCA. It reduces the dimensionality of the spe

File: ps-ppo-6jan25-0,0000-map2_Y00_X00.txt
204.377	390
211.048	352
217.712	364
224.369	504
231.019	896
237.661	956
244.297	650
250.924	432
257.546	282
264.16	202
270.766	188
277.365	194
283.958	232
290.543	390
297.121	458
303.693	358
310.256	260
316.813	258
323.362	240
329.905	264
336.441	276
342.969	218
349.491	216
356.006	236
362.513	214
369.014	208
375.508	190
381.994	162
388.473	140
394.947	138
401.412	132
407.871	160
414.323	232
420.768	182
427.206	124
433.637	108
440.062	78
446.479	86
452.89	82
459.293	86
465.691	102
472.081	160
478.463	224
484.84	306
491.21	178
497.573	122
503.929	104
510.279	166
516.621	186
522.957	152
529.287	246
535.609	446
541.925	434
548.234	230
554.536	216
560.832	408
567.12	1484
573.403	2048
579.679	536
585.948	348
592.211	276
598.466	216
604.715	128
610.958	112
617.194	102
623.424	114
629.647	144
635.864	160
642.074	132
648.276	108
654.473	92
660.664	80
666.847	68
673.025	66
679.195	64
685.36	60
691.517	66
697.669	56
703.814	72
709.953	80
716.085	104
722.21	80
728.33	84
734.443	86
740.549	102
746.65	154
752.743	126
758.831	102
764.912	74
770.986	76
777.055	86
783.117	86
789.173	76
795.222	72
801.265	74
807.302	80
813.333	78
819.357	86
825.376	144
831.387	500
837.392	270
843.392	104
849.386	110
855.372	94
861.353	76
867.328	72
873.296	58
879.258	74
885.214	64
891.164	62
897.108	62
903.046	64
908.977	66
914.903	60
920.822	62
926.735	64
932.643	66
938.543	76
944.439	96
950.328	154
956.21	308
962.088	368
967.958	238
973.824	152
979.682	96
985.534	80
991.382	88
997.222	70
1003.06	64
1008.89	66
1014.71	70
1020.53	78
1026.34	84
1032.14	104
1037.94	106
1043.73	92
1049.52	76
1055.3	68
1061.08	70
1066.85	64
1072.61	64
1078.37	70
1084.12	78
1089.87	70
1095.61	70
1101.34	84
1107.07	160
1112.8	374
1118.51	164
1124.22	108
1129.93	90
1135.63	76
1141.32	92
1147.01	84
1152.69	80
1158.37	78
1164.04	108
1169.71	92
1175.37	100
1181.02	152
1186.67	260
1192.31	182
1197.95	154
1203.58	182
1209.2	138
1214.82	96
1220.44	102
1226.05	126
1231.65	140
1237.25	98
1242.84	92
1248.42	84
1254	92
1259.58	88
1265.15	100
1270.71	104
1276.27	126
1281.82	128
1287.37	164
1292.91	196
1298.45	362
1303.98	782
1309.5	550
1315.02	266
1320.53	202
1326.04	186
1331.54	176
1337.04	146
1342.53	160
1348.02	184
1353.5	192
1358.98	162
1364.45	148
1369.91	194
1375.37	354
1380.82	456
1386.27	286
1391.71	172
1397.15	148
1402.58	146
1408.01	140
1413.43	148
1418.85	174
1424.26	196
1429.66	192
1435.06	216
1440.46	228
1445.85	196
1451.23	168
1456.61	180
1461.98	162
1467.35	156
1472.71	150
1478.07	146
1483.42	152
1488.77	134
1494.11	126
1499.45	112
1504.78	120
1510.11	128
1515.43	110
1520.74	114
1526.05	112
1531.36	116
1536.66	118
1541.95	114
1547.24	110
1552.52	114
1557.8	122
1563.08	118
1568.35	130
1573.61	132
1578.87	152
1584.12	182
1589.37	256
1594.61	350
1599.85	468
1605.08	476
1610.31	360
1615.53	260
1620.75	178
1625.96	130
1631.17	120
1636.37	106
1641.57	88
1646.76	90
1651.95	94
1657.13	90
1662.31	94
1667.48	84
1672.65	84
1677.81	72
1682.97	90
1688.12	86
1693.27	86
1698.41	82
1702.26	78

File: ps-ppo-6jan25-0,0000-map2_Y00_X01.txt
204.377	402
211.048	348
217.712	342
224.369	502
231.019	902
237.661	956
244.297	632
250.924	426
257.546	260
264.16	210
270.766	186
277.365	192
283.958	238
290.543	374
297.121	466
303.693	338
310.256	274
316.813	248
323.362	246
329.905	264
336.441	278
342.969	222
349.491	224
356.006	234
362.513	192
369.014	200
375.508	200
381.994	156
388.473	148
394.947	130
401.412	144
407.871	152
414.323	218
420.768	166
427.206	122
433.637	108
440.062	94
446.479	82
452.89	84
459.293	88
465.691	108
472.081	148
478.463	240
484.84	300
491.21	184
497.573	114
503.929	106
510.279	156
516.621	180
522.957	160
529.287	240
535.609	420
541.925	442
548.234	236
554.536	208
560.832	414
567.12	1518
573.403	2028
579.679	522
585.948	328
592.211	266
598.466	220
604.715	124
610.958	92
617.194	100
623.424	116
629.647	130
635.864	152
642.074	132
648.276	114
654.473	88
660.664	80
666.847	72
673.025	58
679.195	60
685.36	56
691.517	64
697.669	62
703.814	66
709.953	82
716.085	106
722.21	76
728.33	74
734.443	86
740.549	102
746.65	142
752.743	134
758.831	100
764.912	68
770.986	76
777.055	80
783.117	76
789.173	66
795.222	66
801.265	70
807.302	76
813.333	70
819.357	92
825.376	130
831.387	488
837.392	258
843.392	104
849.386	106
855.372	88
861.353	92
867.328	76
873.296	72
879.258	64
885.214	68
891.164	62
897.108	62
903.046	64
908.977	62
914.903	58
920.822	64
926.735	58
932.643	64
938.543	82
944.439	94
950.328	148
956.21	304
962.088	368
967.958	242
973.824	134
979.682	78
985.534	66
991.382	80
997.222	64
1003.06	62
1008.89	64
1014.71	62
1020.53	84
1026.34	94
1032.14	114
1037.94	100
1043.73	96
1049.52	74
1055.3	68
1061.08	62
1066.85	70
1072.61	66
1078.37	68
1084.12	64
1089.87	62
1095.61	72
1101.34	78
1107.07	144
1112.8	386
1118.51	164
1124.22	108
1129.93	86
1135.63	86
1141.32	98
1147.01	82
1152.69	78
1158.37	92
1164.04	102
1169.71	88
1175.37	106
1181.02	146
1186.67	256
1192.31	180
1197.95	158
1203.58	180
1209.2	126
1214.82	100
1220.44	98
1226.05	120
1231.65	140
1237.25	102
1242.84	86
1248.42	84
1254	86
1259.58	94
1265.15	108
1270.71	98
1276.27	110
1281.82	122
1287.37	158
1292.91	192
1298.45	356
1303.98	790
1309.5	536
1315.02	272
1320.53	186
1326.04	182
1331.54	182
1337.04	152
1342.53	164
1348.02	160
1353.5	168
1358.98	154
1364.45	146
1369.91	178
1375.37	344
1380.82	456
1386.27	282
1391.71	168
1397.15	162
1402.58	132
1408.01	128
1413.43	142
1418.85	168
1424.26	186
1429.66	194
1435.06	204
1440.46	240
1445.85	202
1451.23	176
1456.61	160
1461.98	168
1467.35	154
1472.71	152
1478.07	154
1483.42	154
1488.77	132
1494.11	124
1499.45	114
1504.78	118
1510.11	118
1515.43	116
1520.74	108
1526.05	114
1531.36	108
1536.66	118
1541.95	112
1547.24	116
1552.52	110
1557.8	116
1563.08	120
1568.35	124
1573.61	124
1578.87	164
1584.12	186
1589.37	244
1594.61	364
1599.85	484
1605.08	478
1610.31	364
1615.53	260
1620.75	182
1625.96	134
1631.17	108
1636.37	100
1641.57	104
1646.76	84
1651.95	88
1657.13	88
1662.31	84
1667.48	88
1672.65	78
1677.81	78
1682.97	80
1688.12	80
1693.27	84
1698.41	78
1702.26	82

File: ps-ppo-6jan25-0,0000-map2_Y00_X02.txt
204.377	394
211.048	364
217.712	346
224.369	480
231.019	920
237.661	934
244.297	658
250.924	398
257.546	288
264.16	198
270.766	176
277.365	188
283.958	238
290.543	396
297.121	434
303.693	318
310.256	260
316.813	234
323.362	240
329.905	258
336.441	268
342.969	204
349.491	210
356.006	208
362.513	206
369.014	212
375.508	200
381.994	168
388.473	142
394.947	128
401.412	136
407.871	162
414.323	208
420.768	162
427.206	108
433.637	98
440.062	88
446.479	80
452.89	82
459.293	82
465.691	106
472.081	162
478.463	234
484.84	292
491.21	186
497.573	120
503.929	110
510.279	152
516.621	168
522.957	148
529.287	234
535.609	426
541.925	412
548.234	220
554.536	198
560.832	390
567.12	1456
573.403	2022
579.679	498
585.948	362
592.211	282
598.466	206
604.715	118
610.958	92
617.194	92
623.424	108
629.647	124
635.864	156
642.074	132
648.276	104
654.473	86
660.664	82
666.847	74
673.025	66
679.195	66
685.36	64
691.517	66
697.669	72
703.814	68
709.953	84
716.085	108
722.21	80
728.33	74
734.443	78
740.549	96
746.65	134
752.743	116
758.831	96
764.912	70
770.986	68
777.055	82
783.117	82
789.173	68
795.222	68
801.265	70
807.302	78
813.333	82
819.357	82
825.376	146
831.387	464
837.392	262
843.392	110
849.386	100
855.372	96
861.353	84
867.328	86
873.296	72
879.258	66
885.214	66
891.164	64
897.108	58
903.046	58
908.977	58
914.903	64
920.822	56
926.735	60
932.643	62
938.543	70
944.439	86
950.328	142
956.21	320
962.088	374
967.958	234
973.824	122
979.682	72
985.534	72
991.382	82
997.222	68
1003.06	62
1008.89	66
1014.71	76
1020.53	74
1026.34	88
1032.14	108
1037.94	100
1043.73	94
1049.52	72
1055.3	74
1061.08	70
1066.85	66
1072.61	66
1078.37	70
1084.12	62
1089.87	66
1095.61	72
1101.34	88
1107.07	136
1112.8	340
1118.51	164
1124.22	102
1129.93	100
1135.63	82
1141.32	86
1147.01	80
1152.69	78
1158.37	94
1164.04	94
1169.71	88
1175.37	94
1181.02	146
1186.67	252
1192.31	166
1197.95	160
1203.58	188
1209.2	136
1214.82	98
1220.44	82
1226.05	112
1231.65	134
1237.25	98
1242.84	90
1248.42	84
1254	88
1259.58	96
1265.15	86
1270.71	88
1276.27	110
1281.82	134
1287.37	158
1292.91	190
1298.45	342
1303.98	776
1309.5	540
1315.02	262
1320.53	194
1326.04	178
1331.54	168
1337.04	152
1342.53	154
1348.02	180
1353.5	164
1358.98	158
1364.45	134
1369.91	184
1375.37	314
1380.82	418
1386.27	260
1391.71	172
1397.15	148
1402.58	140
1408.01	144
1413.43	144
1418.85	160
1424.26	186
1429.66	178
1435.06	200
1440.46	210
1445.85	194
1451.23	176
1456.61	162
1461.98	164
1467.35	150
1472.71	160
1478.07	150
1483.42	136
1488.77	130
1494.11	120
1499.45	114
1504.78	120
1510.11	114
1515.43	108
1520.74	100
1526.05	94
1531.36	110
1536.66	114
1541.95	118
1547.24	122
1552.52	100
1557.8	104
1563.08	116
1568.35	108
1573.61	132
1578.87	156
1584.12	186
1589.37	234
1594.61	318
1599.85	472
1605.08	456
1610.31	346
1615.53	252
1620.75	174
1625.96	138
1631.17	118
1636.37	102
1641.57	90
1646.76	86
1651.95	78
1657.13	78
1662.31	80
1667.48	88
1672.65	80
1677.81	76
1682.97	80
1688.12	84
1693.27	82
1698.41	74
1702.26	86

File: ps-ppo-6jan25-0,0000-map2_Y00_X03.txt
204.377	390
211.048	372
217.712	342
224.369	474
231.019	918
237.661	916
244.297	628
250.924	402
257.546	280
264.16	214
270.766	188
277.365	190
283.958	228
290.543	374
297.121	428
303.693	354
310.256	272
316.813	230
323.362	228
329.905	260
336.441	262
342.969	210
349.491	210
356.006	210
362.513	198
369.014	190
375.508	188
381.994	150
388.473	142
394.947	122
401.412	126
407.871	166
414.323	212
420.768	162
427.206	124
433.637	102
440.062	88
446.479	74
452.89	86
459.293	94
465.691	104
472.081	152
478.463	224
484.84	286
491.21	174
497.573	122
503.929	100
510.279	168
516.621	178
522.957	150
529.287	226
535.609	392
541.925	408
548.234	212
554.536	208
560.832	404
567.12	1402
573.403	1996
579.679	518
585.948	344
592.211	276
598.466	200
604.715	108
610.958	86
617.194	92
623.424	110
629.647	136
635.864	146
642.074	130
648.276	112
654.473	92
660.664	78
666.847	68
673.025	60
679.195	64
685.36	62
691.517	62
697.669	56
703.814	78
709.953	76
716.085	102
722.21	78
728.33	74
734.443	86
740.549	92
746.65	148
752.743	120
758.831	84
764.912	70
770.986	74
777.055	72
783.117	78
789.173	74
795.222	70
801.265	70
807.302	76
813.333	78
819.357	84
825.376	136
831.387	472
837.392	258
843.392	104
849.386	100
855.372	88
861.353	86
867.328	68
873.296	68
879.258	64
885.214	60
891.164	62
897.108	58
903.046	56
908.977	58
914.903	56
920.822	62
926.735	60
932.643	70
938.543	66
944.439	94
950.328	164
956.21	292
962.088	366
967.958	204
973.824	138
979.682	92
985.534	64
991.382	80
997.222	66
1003.06	68
1008.89	64
1014.71	76
1020.53	78
1026.34	86
1032.14	92
1037.94	94
1043.73	84
1049.52	64
1055.3	68
1061.08	64
1066.85	70
1072.61	70
1078.37	66
1084.12	58
1089.87	62
1095.61	68
1101.34	86
1107.07	140
1112.8	362
1118.51	150
1124.22	106
1129.93	82
1135.63	88
1141.32	98
1147.01	78
1152.69	70
1158.37	86
1164.04	98
1169.71	90
1175.37	102
1181.02	146
1186.67	240
1192.31	170
1197.95	178
1203.58	174
1209.2	122
1214.82	96
1220.44	92
1226.05	116
1231.65	140
1237.25	98
1242.84	94
1248.42	102
1254	88
1259.58	88
1265.15	98
1270.71	106
1276.27	110
1281.82	132
1287.37	152
1292.91	190
1298.45	342
1303.98	780
1309.5	526
1315.02	268
1320.53	196
1326.04	186
1331.54	176
1337.04	150
1342.53	158
1348.02	182
1353.5	168
1358.98	150
1364.45	160
1369.91	168
1375.37	360
1380.82	436
1386.27	284
1391.71	170
1397.15	138
1402.58	134
1408.01	150
1413.43	152
1418.85	162
1424.26	180
1429.66	188
1435.06	196
1440.46	212
1445.85	206
1451.23	166
1456.61	172
1461.98	160
1467.35	158
1472.71	140
1478.07	154
1483.42	146
1488.77	116
1494.11	116
1499.45	116
1504.78	116
1510.11	110
1515.43	112
1520.74	112
1526.05	108
1531.36	112
1536.66	110
1541.95	124
1547.24	110
1552.52	110
1557.8	116
1563.08	104
1568.35	112
1573.61	126
1578.87	134
1584.12	170
1589.37	238
1594.61	338
1599.85	454
1605.08	474
1610.31	338
1615.53	244
1620.75	168
1625.96	120
1631.17	108
1636.37	102
1641.57	92
1646.76	94
1651.95	94
1657.13	86
1662.31	84
1667.48	82
1672.65	72
1677.81	74
1682.97	84
1688.12	84
1693.27	84
1698.41	86
1702.26	80

File: ps-ppo-6jan25-0,0000-map2_Y00_X04.txt
204.377	382
211.048	344
217.712	342
224.369	478
231.019	898
237.661	888
244.297	638
250.924	416
257.546	266
264.16	208
270.766	186
277.365	180
283.958	224
290.543	378
297.121	416
303.693	336
310.256	248
316.813	234
323.362	226
329.905	256
336.441	240
342.969	224
349.491	220
356.006	196
362.513	190
369.014	186
375.508	202
381.994	146
388.473	150
394.947	132
401.412	130
407.871	162
414.323	218
420.768	180
427.206	114
433.637	108
440.062	84
446.479	84
452.89	78
459.293	88
465.691	104
472.081	162
478.463	218
484.84	300
491.21	196
497.573	108
503.929	100
510.279	158
516.621	172
522.957	152
529.287	230
535.609	402
541.925	410
548.234	228
554.536	200
560.832	380
567.12	1390
573.403	1942
579.679	500
585.948	306
592.211	266
598.466	190
604.715	114
610.958	100
617.194	92
623.424	96
629.647	142
635.864	156
642.074	130
648.276	96
654.473	86
660.664	70
666.847	68
673.025	62
679.195	56
685.36	68
691.517	62
697.669	54
703.814	68
709.953	82
716.085	102
722.21	84
728.33	86
734.443	76
740.549	94
746.65	150
752.743	112
758.831	90
764.912	72
770.986	78
777.055	80
783.117	80
789.173	74
795.222	72
801.265	66
807.302	76
813.333	70
819.357	76
825.376	134
831.387	466
837.392	260
843.392	114
849.386	90
855.372	92
861.353	88
867.328	72
873.296	72
879.258	62
885.214	62
891.164	58
897.108	60
903.046	52
908.977	60
914.903	58
920.822	54
926.735	64
932.643	70
938.543	76
944.439	90
950.328	150
956.21	302
962.088	364
967.958	226
973.824	124
979.682	86
985.534	74
991.382	78
997.222	70
1003.06	66
1008.89	64
1014.71	70
1020.53	78
1026.34	82
1032.14	98
1037.94	106
1043.73	84
1049.52	70
1055.3	68
1061.08	64
1066.85	62
1072.61	62
1078.37	68
1084.12	68
1089.87	68
1095.61	74
1101.34	80
1107.07	152
1112.8	360
1118.51	160
1124.22	108
1129.93	98
1135.63	92
1141.32	86
1147.01	82
1152.69	86
1158.37	84
1164.04	100
1169.71	90
1175.37	86
1181.02	146
1186.67	242
1192.31	162
1197.95	160
1203.58	182
1209.2	130
1214.82	100
1220.44	98
1226.05	122
1231.65	138
1237.25	96
1242.84	80
1248.42	92
1254	98
1259.58	90
1265.15	100
1270.71	110
1276.27	118
1281.82	136
1287.37	158
1292.91	186
1298.45	340
1303.98	746
1309.5	524
1315.02	264
1320.53	196
1326.04	184
1331.54	186
1337.04	162
1342.53	154
1348.02	172
1353.5	164
1358.98	164
1364.45	146
1369.91	176
1375.37	336
1380.82	412
1386.27	286
1391.71	160
1397.15	138
1402.58	136
1408.01	140
1413.43	146
1418.85	170
1424.26	198
1429.66	192
1435.06	200
1440.46	218
1445.85	208
1451.23	178
1456.61	170
1461.98	160
1467.35	156
1472.71	138
1478.07	138
1483.42	132
1488.77	124
1494.11	120
1499.45	114
1504.78	118
1510.11	118
1515.43	110
1520.74	110
1526.05	114
1531.36	106
1536.66	100
1541.95	108
1547.24	108
1552.52	112
1557.8	114
1563.08	106
1568.35	108
1573.61	134
1578.87	136
1584.12	182
1589.37	240
1594.61	328
1599.85	464
1605.08	452
1610.31	360
1615.53	260
1620.75	162
1625.96	134
1631.17	108
1636.37	100
1641.57	92
1646.76	90
1651.95	88
1657.13	80
1662.31	78
1667.48	80
1672.65	84
1677.81	82
1682.97	88
1688.12	76
1693.27	86
1698.41	86
1702.26	80

File: ps-ppo-6jan25-0,0000-map2_Y00_X07.txt
204.377	398
211.048	364
217.712	338
224.369	484
231.019	912
237.661	924
244.297	616
250.924	420
257.546	278
264.16	212
270.766	202
277.365	194
283.958	220
290.543	350
297.121	438
303.693	334
310.256	282
316.813	232
323.362	238
329.905	264
336.441	240
342.969	220
349.491	190
356.006	216
362.513	200
369.014	186
375.508	188
381.994	150
388.473	132
394.947	120
401.412	122
407.871	164
414.323	214
420.768	168
427.206	124
433.637	100
440.062	84
446.479	72
452.89	80
459.293	90
465.691	106
472.081	160
478.463	220
484.84	294
491.21	184
497.573	118
503.929	110
510.279	168
516.621	184
522.957	156
529.287	230
535.609	412
541.925	412
548.234	212
554.536	220
560.832	402
567.12	1440
573.403	1984
579.679	498
585.948	326
592.211	268
598.466	212
604.715	122
610.958	100
617.194	96
623.424	116
629.647	134
635.864	152
642.074	136
648.276	108
654.473	82
660.664	82
666.847	66
673.025	68
679.195	58
685.36	66
691.517	58
697.669	56
703.814	66
709.953	84
716.085	110
722.21	80
728.33	74
734.443	80
740.549	102
746.65	142
752.743	132
758.831	92
764.912	64
770.986	78
777.055	78
783.117	84
789.173	74
795.222	68
801.265	76
807.302	76
813.333	76
819.357	88
825.376	128
831.387	494
837.392	234
843.392	112
849.386	94
855.372	92
861.353	80
867.328	70
873.296	74
879.258	62
885.214	66
891.164	62
897.108	54
903.046	58
908.977	58
914.903	58
920.822	60
926.735	58
932.643	66
938.543	62
944.439	96
950.328	158
956.21	300
962.088	366
967.958	240
973.824	134
979.682	80
985.534	76
991.382	80
997.222	68
1003.06	62
1008.89	62
1014.71	66
1020.53	82
1026.34	86
1032.14	98
1037.94	94
1043.73	88
1049.52	74
1055.3	68
1061.08	68
1066.85	64
1072.61	64
1078.37	66
1084.12	66
1089.87	64
1095.61	68
1101.34	84
1107.07	142
1112.8	354
1118.51	170
1124.22	100
1129.93	90
1135.63	84
1141.32	96
1147.01	78
1152.69	72
1158.37	80
1164.04	96
1169.71	94
1175.37	106
1181.02	132
1186.67	252
1192.31	172
1197.95	174
1203.58	186
1209.2	136
1214.82	92
1220.44	94
1226.05	110
1231.65	136
1237.25	108
1242.84	102
1248.42	88
1254	88
1259.58	86
1265.15	96
1270.71	100
1276.27	100
1281.82	134
1287.37	154
1292.91	192
1298.45	348
1303.98	804
1309.5	518
1315.02	254
1320.53	194
1326.04	190
1331.54	170
1337.04	144
1342.53	150
1348.02	158
1353.5	156
1358.98	148
1364.45	142
1369.91	178
1375.37	342
1380.82	430
1386.27	278
1391.71	172
1397.15	146
1402.58	144
1408.01	154
1413.43	144
1418.85	164
1424.26	180
1429.66	200
1435.06	204
1440.46	204
1445.85	202
1451.23	156
1456.61	158
1461.98	168
1467.35	152
1472.71	148
1478.07	146
1483.42	132
1488.77	122
1494.11	116
1499.45	118
1504.78	120
1510.11	110
1515.43	118
1520.74	106
1526.05	108
1531.36	114
1536.66	102
1541.95	110
1547.24	116
1552.52	112
1557.8	108
1563.08	120
1568.35	116
1573.61	126
1578.87	154
1584.12	172
1589.37	244
1594.61	344
1599.85	474
1605.08	474
1610.31	384
1615.53	256
1620.75	170
1625.96	138
1631.17	114
1636.37	102
1641.57	88
1646.76	92
1651.95	80
1657.13	88
1662.31	84
1667.48	74
1672.65	78
1677.81	76
1682.97	78
1688.12	86
1693.27	92
1698.41	86
1702.26	80

File: ps-ppo-6jan25-0,0000-map2_Y01_X03.txt
204.377	418
211.048	342
217.712	350
224.369	500
231.019	954
237.661	958
244.297	672
250.924	404
257.546	282
264.16	202
270.766	192
277.365	172
283.958	252
290.543	388
297.121	422
303.693	336
310.256	260
316.813	248
323.362	234
329.905	258
336.441	260
342.969	222
349.491	232
356.006	234
362.513	196
369.014	188
375.508	184
381.994	152
388.473	132
394.947	122
401.412	128
407.871	158
414.323	222
420.768	172
427.206	132
433.637	104
440.062	80
446.479	82
452.89	82
459.293	76
465.691	108
472.081	150
478.463	234
484.84	310
491.21	170
497.573	112
503.929	102
510.279	166
516.621	170
522.957	160
529.287	232
535.609	438
541.925	426
548.234	216
554.536	220
560.832	408
567.12	1500
573.403	2096
579.679	528
585.948	346
592.211	276
598.466	226
604.715	114
610.958	96
617.194	94
623.424	116
629.647	142
635.864	150
642.074	124
648.276	100
654.473	90
660.664	80
666.847	68
673.025	64
679.195	62
685.36	64
691.517	64
697.669	66
703.814	68
709.953	88
716.085	94
722.21	74
728.33	80
734.443	84
740.549	86
746.65	138
752.743	112
758.831	90
764.912	78
770.986	72
777.055	82
783.117	70
789.173	66
795.222	64
801.265	70
807.302	74
813.333	74
819.357	86
825.376	136
831.387	506
837.392	258
843.392	104
849.386	94
855.372	84
861.353	84
867.328	70
873.296	62
879.258	60
885.214	66
891.164	52
897.108	58
903.046	64
908.977	62
914.903	64
920.822	66
926.735	56
932.643	70
938.543	76
944.439	98
950.328	156
956.21	316
962.088	380
967.958	234
973.824	146
979.682	96
985.534	76
991.382	78
997.222	70
1003.06	60
1008.89	68
1014.71	70
1020.53	82
1026.34	88
1032.14	104
1037.94	94
1043.73	86
1049.52	72
1055.3	64
1061.08	64
1066.85	70
1072.61	56
1078.37	68
1084.12	62
1089.87	70
1095.61	70
1101.34	86
1107.07	146
1112.8	358
1118.51	164
1124.22	108
1129.93	98
1135.63	88
1141.32	92
1147.01	86
1152.69	70
1158.37	86
1164.04	98
1169.71	86
1175.37	100
1181.02	146
1186.67	266
1192.31	176
1197.95	164
1203.58	182
1209.2	138
1214.82	92
1220.44	92
1226.05	108
1231.65	136
1237.25	102
1242.84	92
1248.42	80
1254	92
1259.58	98
1265.15	100
1270.71	100
1276.27	116
1281.82	130
1287.37	162
1292.91	204
1298.45	348
1303.98	780
1309.5	574
1315.02	280
1320.53	216
1326.04	190
1331.54	174
1337.04	152
1342.53	154
1348.02	180
1353.5	172
1358.98	156
1364.45	154
1369.91	178
1375.37	362
1380.82	446
1386.27	292
1391.71	164
1397.15	142
1402.58	138
1408.01	142
1413.43	150
1418.85	164
1424.26	190
1429.66	196
1435.06	214
1440.46	232
1445.85	204
1451.23	166
1456.61	164
1461.98	162
1467.35	160
1472.71	144
1478.07	156
1483.42	146
1488.77	122
1494.11	120
1499.45	124
1504.78	130
1510.11	114
1515.43	108
1520.74	104
1526.05	114
1531.36	106
1536.66	124
1541.95	106
1547.24	112
1552.52	104
1557.8	112
1563.08	116
1568.35	118
1573.61	126
1578.87	144
1584.12	182
1589.37	248
1594.61	348
1599.85	466
1605.08	502
1610.31	366
1615.53	252
1620.75	170
1625.96	138
1631.17	116
1636.37	94
1641.57	96
1646.76	84
1651.95	92
1657.13	86
1662.31	86
1667.48	74
1672.65	78
1677.81	78
1682.97	68
1688.12	76
1693.27	78
1698.41	72
1702.26	80