Folder: NRC_SU25_Spectral_Classification/Mixture_Classification/Jesse_Dataset_v2/Pure Raman/Polypropylene oxide/785nm (part 4)

File: ps-ppo-6jan25-0,0000-map2_Y04_X02.txt
204.377	360
211.048	340
217.712	352
224.369	494
231.019	922
237.661	892
244.297	636
250.924	406
257.546	278
264.16	212
270.766	170
277.365	190
283.958	234
290.543	378
297.121	424
303.693	314
310.256	264
316.813	230
323.362	224
329.905	254
336.441	254
342.969	212
349.491	224
356.006	210
362.513	192
369.014	188
375.508	188
381.994	154
388.473	138
394.947	128
401.412	122
407.871	150
414.323	218
420.768	170
427.206	124
433.637	96
440.062	94
446.479	86
452.89	78
459.293	88
465.691	108
472.081	156
478.463	238
484.84	302
491.21	172
497.573	112
503.929	92
510.279	166
516.621	172
522.957	164
529.287	224
535.609	414
541.925	396
548.234	220
554.536	210
560.832	402
567.12	1372
573.403	1938
579.679	488
585.948	318
592.211	262
598.466	206
604.715	124
610.958	92
617.194	82
623.424	118
629.647	128
635.864	152
642.074	126
648.276	92
654.473	86
660.664	80
666.847	64
673.025	60
679.195	60
685.36	60
691.517	60
697.669	60
703.814	62
709.953	78
716.085	100
722.21	82
728.33	78
734.443	74
740.549	92
746.65	142
752.743	116
758.831	88
764.912	72
770.986	68
777.055	76
783.117	76
789.173	70
795.222	62
801.265	68
807.302	80
813.333	74
819.357	86
825.376	128
831.387	486
837.392	262
843.392	94
849.386	88
855.372	86
861.353	70
867.328	68
873.296	62
879.258	60
885.214	62
891.164	54
897.108	52
903.046	62
908.977	54
914.903	56
920.822	56
926.735	62
932.643	62
938.543	78
944.439	94
950.328	146
956.21	290
962.088	352
967.958	232
973.824	136
979.682	86
985.534	68
991.382	74
997.222	60
1003.06	66
1008.89	66
1014.71	70
1020.53	84
1026.34	92
1032.14	96
1037.94	94
1043.73	88
1049.52	74
1055.3	60
1061.08	62
1066.85	62
1072.61	62
1078.37	64
1084.12	64
1089.87	70
1095.61	70
1101.34	76
1107.07	142
1112.8	362
1118.51	162
1124.22	96
1129.93	86
1135.63	88
1141.32	84
1147.01	80
1152.69	68
1158.37	76
1164.04	94
1169.71	86
1175.37	94
1181.02	128
1186.67	242
1192.31	150
1197.95	158
1203.58	170
1209.2	138
1214.82	98
1220.44	92
1226.05	110
1231.65	132
1237.25	106
1242.84	80
1248.42	90
1254	90
1259.58	76
1265.15	88
1270.71	96
1276.27	100
1281.82	122
1287.37	146
1292.91	204
1298.45	354
1303.98	742
1309.5	526
1315.02	264
1320.53	194
1326.04	172
1331.54	186
1337.04	142
1342.53	158
1348.02	166
1353.5	162
1358.98	152
1364.45	160
1369.91	182
1375.37	332
1380.82	414
1386.27	262
1391.71	174
1397.15	142
1402.58	142
1408.01	142
1413.43	142
1418.85	164
1424.26	188
1429.66	192
1435.06	192
1440.46	208
1445.85	204
1451.23	186
1456.61	168
1461.98	166
1467.35	148
1472.71	150
1478.07	152
1483.42	140
1488.77	120
1494.11	120
1499.45	122
1504.78	120
1510.11	110
1515.43	118
1520.74	106
1526.05	112
1531.36	100
1536.66	110
1541.95	106
1547.24	104
1552.52	104
1557.8	106
1563.08	110
1568.35	116
1573.61	128
1578.87	146
1584.12	180
1589.37	236
1594.61	356
1599.85	462
1605.08	472
1610.31	358
1615.53	254
1620.75	166
1625.96	124
1631.17	106
1636.37	100
1641.57	86
1646.76	88
1651.95	80
1657.13	70
1662.31	78
1667.48	86
1672.65	84
1677.81	74
1682.97	72
1688.12	82
1693.27	84
1698.41	78
1702.26	72

File: ps-ppo-6jan25-0,0000-map2_Y04_X03.txt
204.377	392
211.048	332
217.712	342
224.369	484
231.019	882
237.661	914
244.297	636
250.924	386
257.546	266
264.16	208
270.766	170
277.365	182
283.958	214
290.543	374
297.121	438
303.693	332
310.256	274
316.813	238
323.362	236
329.905	244
336.441	262
342.969	222
349.491	204
356.006	208
362.513	188
369.014	210
375.508	192
381.994	160
388.473	144
394.947	124
401.412	132
407.871	156
414.323	218
420.768	170
427.206	120
433.637	96
440.062	80
446.479	80
452.89	80
459.293	88
465.691	100
472.081	160
478.463	218
484.84	302
491.21	172
497.573	108
503.929	108
510.279	156
516.621	182
522.957	160
529.287	232
535.609	408
541.925	414
548.234	218
554.536	212
560.832	386
567.12	1446
573.403	1974
579.679	488
585.948	326
592.211	250
598.466	198
604.715	120
610.958	92
617.194	86
623.424	116
629.647	134
635.864	148
642.074	124
648.276	106
654.473	74
660.664	76
666.847	60
673.025	66
679.195	66
685.36	60
691.517	62
697.669	64
703.814	60
709.953	78
716.085	98
722.21	84
728.33	70
734.443	74
740.549	88
746.65	148
752.743	124
758.831	82
764.912	70
770.986	68
777.055	78
783.117	72
789.173	70
795.222	58
801.265	68
807.302	74
813.333	78
819.357	90
825.376	132
831.387	478
837.392	222
843.392	104
849.386	102
855.372	82
861.353	86
867.328	72
873.296	68
879.258	62
885.214	60
891.164	64
897.108	58
903.046	56
908.977	56
914.903	56
920.822	62
926.735	64
932.643	56
938.543	76
944.439	86
950.328	142
956.21	298
962.088	354
967.958	220
973.824	130
979.682	78
985.534	74
991.382	84
997.222	64
1003.06	60
1008.89	62
1014.71	70
1020.53	74
1026.34	88
1032.14	90
1037.94	98
1043.73	88
1049.52	72
1055.3	70
1061.08	72
1066.85	70
1072.61	62
1078.37	66
1084.12	68
1089.87	64
1095.61	72
1101.34	82
1107.07	128
1112.8	346
1118.51	154
1124.22	98
1129.93	86
1135.63	80
1141.32	84
1147.01	78
1152.69	76
1158.37	86
1164.04	94
1169.71	82
1175.37	96
1181.02	142
1186.67	230
1192.31	170
1197.95	152
1203.58	160
1209.2	130
1214.82	94
1220.44	88
1226.05	104
1231.65	132
1237.25	96
1242.84	88
1248.42	92
1254	84
1259.58	86
1265.15	98
1270.71	106
1276.27	104
1281.82	120
1287.37	162
1292.91	190
1298.45	330
1303.98	732
1309.5	508
1315.02	278
1320.53	182
1326.04	190
1331.54	170
1337.04	150
1342.53	150
1348.02	176
1353.5	164
1358.98	152
1364.45	148
1369.91	176
1375.37	324
1380.82	424
1386.27	274
1391.71	160
1397.15	148
1402.58	134
1408.01	134
1413.43	132
1418.85	162
1424.26	188
1429.66	184
1435.06	202
1440.46	214
1445.85	176
1451.23	158
1456.61	146
1461.98	152
1467.35	144
1472.71	144
1478.07	144
1483.42	134
1488.77	128
1494.11	134
1499.45	124
1504.78	118
1510.11	110
1515.43	108
1520.74	104
1526.05	116
1531.36	108
1536.66	108
1541.95	106
1547.24	106
1552.52	114
1557.8	116
1563.08	106
1568.35	112
1573.61	122
1578.87	140
1584.12	166
1589.37	230
1594.61	350
1599.85	446
1605.08	452
1610.31	356
1615.53	248
1620.75	170
1625.96	124
1631.17	112
1636.37	94
1641.57	82
1646.76	92
1651.95	80
1657.13	76
1662.31	80
1667.48	82
1672.65	84
1677.81	86
1682.97	82
1688.12	90
1693.27	86
1698.41	74
1702.26	72

File: ps-ppo-6jan25-0,0000-map2_Y04_X04.txt
204.377	356
211.048	340
217.712	336
224.369	458
231.019	876
237.661	912
244.297	638
250.924	406
257.546	272
264.16	200
270.766	166
277.365	186
283.958	244
290.543	366
297.121	420
303.693	326
310.256	240
316.813	226
323.362	222
329.905	248
336.441	252
342.969	212
349.491	212
356.006	226
362.513	186
369.014	184
375.508	194
381.994	152
388.473	134
394.947	128
401.412	124
407.871	144
414.323	212
420.768	166
427.206	118
433.637	100
440.062	82
446.479	88
452.89	80
459.293	82
465.691	98
472.081	152
478.463	222
484.84	298
491.21	168
497.573	108
503.929	102
510.279	162
516.621	166
522.957	148
529.287	212
535.609	384
541.925	416
548.234	236
554.536	218
560.832	390
567.12	1442
573.403	1910
579.679	468
585.948	340
592.211	270
598.466	202
604.715	110
610.958	82
617.194	92
623.424	106
629.647	134
635.864	148
642.074	122
648.276	96
654.473	82
660.664	68
666.847	64
673.025	62
679.195	56
685.36	58
691.517	62
697.669	56
703.814	66
709.953	74
716.085	86
722.21	78
728.33	72
734.443	84
740.549	84
746.65	124
752.743	104
758.831	92
764.912	66
770.986	72
777.055	72
783.117	80
789.173	76
795.222	62
801.265	64
807.302	82
813.333	78
819.357	82
825.376	128
831.387	486
837.392	246
843.392	110
849.386	86
855.372	80
861.353	80
867.328	68
873.296	68
879.258	60
885.214	64
891.164	60
897.108	58
903.046	56
908.977	56
914.903	48
920.822	60
926.735	60
932.643	62
938.543	68
944.439	86
950.328	148
956.21	304
962.088	342
967.958	220
973.824	130
979.682	86
985.534	68
991.382	72
997.222	66
1003.06	54
1008.89	60
1014.71	64
1020.53	76
1026.34	84
1032.14	92
1037.94	86
1043.73	82
1049.52	66
1055.3	66
1061.08	60
1066.85	64
1072.61	60
1078.37	62
1084.12	68
1089.87	66
1095.61	64
1101.34	82
1107.07	140
1112.8	338
1118.51	154
1124.22	106
1129.93	82
1135.63	84
1141.32	80
1147.01	76
1152.69	80
1158.37	88
1164.04	92
1169.71	84
1175.37	102
1181.02	152
1186.67	240
1192.31	158
1197.95	150
1203.58	180
1209.2	128
1214.82	88
1220.44	90
1226.05	112
1231.65	138
1237.25	100
1242.84	84
1248.42	88
1254	86
1259.58	88
1265.15	90
1270.71	96
1276.27	108
1281.82	134
1287.37	142
1292.91	190
1298.45	342
1303.98	742
1309.5	508
1315.02	248
1320.53	182
1326.04	164
1331.54	166
1337.04	142
1342.53	136
1348.02	164
1353.5	152
1358.98	150
1364.45	154
1369.91	174
1375.37	348
1380.82	410
1386.27	274
1391.71	158
1397.15	136
1402.58	134
1408.01	128
1413.43	150
1418.85	166
1424.26	174
1429.66	194
1435.06	204
1440.46	190
1445.85	192
1451.23	174
1456.61	148
1461.98	152
1467.35	154
1472.71	150
1478.07	140
1483.42	136
1488.77	118
1494.11	122
1499.45	112
1504.78	122
1510.11	110
1515.43	104
1520.74	114
1526.05	118
1531.36	106
1536.66	116
1541.95	108
1547.24	104
1552.52	112
1557.8	102
1563.08	114
1568.35	110
1573.61	126
1578.87	130
1584.12	172
1589.37	228
1594.61	334
1599.85	452
1605.08	448
1610.31	342
1615.53	254
1620.75	164
1625.96	132
1631.17	110
1636.37	94
1641.57	92
1646.76	78
1651.95	90
1657.13	78
1662.31	82
1667.48	82
1672.65	82
1677.81	76
1682.97	78
1688.12	90
1693.27	82
1698.41	72
1702.26	82

File: ps-ppo-6jan25-0,0000-map2_Y04_X07.txt
204.377	364
211.048	328
217.712	334
224.369	486
231.019	894
237.661	912
244.297	628
250.924	404
257.546	284
264.16	206
270.766	176
277.365	188
283.958	234
290.543	382
297.121	434
303.693	308
310.256	262
316.813	238
323.362	236
329.905	260
336.441	246
342.969	224
349.491	194
356.006	212
362.513	196
369.014	190
375.508	192
381.994	156
388.473	132
394.947	130
401.412	130
407.871	156
414.323	224
420.768	180
427.206	116
433.637	92
440.062	92
446.479	70
452.89	82
459.293	86
465.691	96
472.081	146
478.463	224
484.84	300
491.21	176
497.573	112
503.929	90
510.279	158
516.621	154
522.957	154
529.287	234
535.609	414
541.925	400
548.234	220
554.536	194
560.832	410
567.12	1460
573.403	1994
579.679	504
585.948	338
592.211	270
598.466	204
604.715	112
610.958	92
617.194	90
623.424	116
629.647	138
635.864	152
642.074	122
648.276	96
654.473	86
660.664	66
666.847	64
673.025	58
679.195	56
685.36	66
691.517	56
697.669	58
703.814	66
709.953	82
716.085	100
722.21	78
728.33	68
734.443	76
740.549	86
746.65	148
752.743	118
758.831	90
764.912	68
770.986	62
777.055	80
783.117	76
789.173	64
795.222	72
801.265	62
807.302	82
813.333	72
819.357	90
825.376	128
831.387	482
837.392	272
843.392	106
849.386	98
855.372	86
861.353	76
867.328	64
873.296	56
879.258	68
885.214	62
891.164	58
897.108	56
903.046	52
908.977	54
914.903	60
920.822	56
926.735	64
932.643	64
938.543	70
944.439	96
950.328	144
956.21	308
962.088	388
967.958	222
973.824	136
979.682	80
985.534	74
991.382	76
997.222	64
1003.06	66
1008.89	60
1014.71	66
1020.53	70
1026.34	86
1032.14	102
1037.94	90
1043.73	78
1049.52	72
1055.3	62
1061.08	60
1066.85	56
1072.61	60
1078.37	68
1084.12	64
1089.87	72
1095.61	58
1101.34	82
1107.07	138
1112.8	356
1118.51	154
1124.22	100
1129.93	90
1135.63	76
1141.32	80
1147.01	82
1152.69	76
1158.37	82
1164.04	88
1169.71	86
1175.37	98
1181.02	150
1186.67	238
1192.31	176
1197.95	164
1203.58	174
1209.2	128
1214.82	92
1220.44	88
1226.05	112
1231.65	140
1237.25	88
1242.84	84
1248.42	80
1254	80
1259.58	86
1265.15	94
1270.71	98
1276.27	110
1281.82	134
1287.37	146
1292.91	194
1298.45	360
1303.98	768
1309.5	542
1315.02	262
1320.53	198
1326.04	184
1331.54	174
1337.04	150
1342.53	156
1348.02	164
1353.5	170
1358.98	150
1364.45	144
1369.91	176
1375.37	346
1380.82	412
1386.27	280
1391.71	164
1397.15	144
1402.58	140
1408.01	140
1413.43	146
1418.85	170
1424.26	180
1429.66	190
1435.06	206
1440.46	216
1445.85	192
1451.23	180
1456.61	168
1461.98	152
1467.35	156
1472.71	166
1478.07	140
1483.42	122
1488.77	122
1494.11	120
1499.45	110
1504.78	106
1510.11	116
1515.43	106
1520.74	114
1526.05	108
1531.36	108
1536.66	102
1541.95	112
1547.24	110
1552.52	104
1557.8	106
1563.08	116
1568.35	114
1573.61	122
1578.87	140
1584.12	174
1589.37	244
1594.61	336
1599.85	476
1605.08	446
1610.31	358
1615.53	248
1620.75	170
1625.96	130
1631.17	110
1636.37	102
1641.57	94
1646.76	82
1651.95	94
1657.13	78
1662.31	84
1667.48	78
1672.65	76
1677.81	76
1682.97	78
1688.12	84
1693.27	86
1698.41	76
1702.26	76

File: ps-ppo-6jan25-0,0000-map2_Y04_X08.txt
204.377	398
211.048	356
217.712	354
224.369	486
231.019	916
237.661	946
244.297	668
250.924	414
257.546	278
264.16	220
270.766	202
277.365	184
283.958	238
290.543	394
297.121	464
303.693	342
310.256	272
316.813	238
323.362	236
329.905	244
336.441	274
342.969	220
349.491	222
356.006	216
362.513	202
369.014	206
375.508	196
381.994	146
388.473	140
394.947	130
401.412	126
407.871	162
414.323	218
420.768	174
427.206	120
433.637	100
440.062	96
446.479	84
452.89	80
459.293	82
465.691	114
472.081	156
478.463	224
484.84	298
491.21	166
497.573	116
503.929	106
510.279	156
516.621	164
522.957	152
529.287	224
535.609	430
541.925	442
548.234	226
554.536	220
560.832	398
567.12	1456
573.403	2074
579.679	516
585.948	334
592.211	274
598.466	204
604.715	118
610.958	102
617.194	88
623.424	108
629.647	146
635.864	154
642.074	128
648.276	106
654.473	88
660.664	70
666.847	70
673.025	58
679.195	60
685.36	66
691.517	58
697.669	60
703.814	64
709.953	80
716.085	106
722.21	76
728.33	80
734.443	82
740.549	96
746.65	136
752.743	122
758.831	92
764.912	72
770.986	70
777.055	82
783.117	80
789.173	64
795.222	68
801.265	68
807.302	78
813.333	82
819.357	86
825.376	136
831.387	496
837.392	238
843.392	104
849.386	92
855.372	92
861.353	88
867.328	64
873.296	66
879.258	58
885.214	64
891.164	60
897.108	46
903.046	58
908.977	56
914.903	56
920.822	58
926.735	56
932.643	66
938.543	76
944.439	94
950.328	156
956.21	310
962.088	388
967.958	224
973.824	134
979.682	90
985.534	72
991.382	84
997.222	64
1003.06	68
1008.89	62
1014.71	62
1020.53	74
1026.34	90
1032.14	100
1037.94	88
1043.73	84
1049.52	72
1055.3	70
1061.08	68
1066.85	54
1072.61	60
1078.37	68
1084.12	60
1089.87	72
1095.61	68
1101.34	78
1107.07	134
1112.8	368
1118.51	158
1124.22	108
1129.93	86
1135.63	86
1141.32	92
1147.01	76
1152.69	72
1158.37	90
1164.04	88
1169.71	82
1175.37	104
1181.02	144
1186.67	232
1192.31	172
1197.95	154
1203.58	180
1209.2	128
1214.82	94
1220.44	82
1226.05	112
1231.65	134
1237.25	104
1242.84	82
1248.42	90
1254	86
1259.58	100
1265.15	98
1270.71	94
1276.27	104
1281.82	128
1287.37	158
1292.91	194
1298.45	366
1303.98	772
1309.5	516
1315.02	272
1320.53	190
1326.04	188
1331.54	172
1337.04	150
1342.53	156
1348.02	174
1353.5	174
1358.98	160
1364.45	158
1369.91	182
1375.37	336
1380.82	444
1386.27	294
1391.71	168
1397.15	142
1402.58	144
1408.01	150
1413.43	140
1418.85	154
1424.26	188
1429.66	188
1435.06	202
1440.46	224
1445.85	198
1451.23	168
1456.61	162
1461.98	168
1467.35	142
1472.71	144
1478.07	150
1483.42	152
1488.77	134
1494.11	116
1499.45	122
1504.78	116
1510.11	120
1515.43	112
1520.74	100
1526.05	108
1531.36	106
1536.66	114
1541.95	110
1547.24	114
1552.52	102
1557.8	108
1563.08	116
1568.35	106
1573.61	130
1578.87	140
1584.12	186
1589.37	232
1594.61	344
1599.85	496
1605.08	466
1610.31	358
1615.53	266
1620.75	176
1625.96	128
1631.17	112
1636.37	98
1641.57	98
1646.76	98
1651.95	88
1657.13	82
1662.31	92
1667.48	80
1672.65	78
1677.81	70
1682.97	70
1688.12	76
1693.27	84
1698.41	80
1702.26	78

File: ps-ppo-6jan25-0,0000-map2_Y04_X09.txt
204.377	414
211.048	344
217.712	354
224.369	478
231.019	940
237.661	980
244.297	672
250.924	426
257.546	278
264.16	212
270.766	188
277.365	190
283.958	232
290.543	402
297.121	442
303.693	342
310.256	264
316.813	242
323.362	256
329.905	244
336.441	266
342.969	220
349.491	210
356.006	216
362.513	184
369.014	218
375.508	206
381.994	162
388.473	130
394.947	120
401.412	126
407.871	154
414.323	218
420.768	154
427.206	124
433.637	104
440.062	86
446.479	78
452.89	80
459.293	82
465.691	104
472.081	166
478.463	232
484.84	296
491.21	178
497.573	106
503.929	104
510.279	162
516.621	174
522.957	150
529.287	242
535.609	432
541.925	420
548.234	214
554.536	218
560.832	420
567.12	1458
573.403	2094
579.679	512
585.948	346
592.211	270
598.466	212
604.715	134
610.958	94
617.194	94
623.424	112
629.647	144
635.864	146
642.074	130
648.276	108
654.473	86
660.664	72
666.847	66
673.025	56
679.195	62
685.36	62
691.517	54
697.669	56
703.814	66
709.953	82
716.085	98
722.21	80
728.33	74
734.443	74
740.549	86
746.65	140
752.743	126
758.831	88
764.912	66
770.986	76
777.055	78
783.117	78
789.173	68
795.222	66
801.265	64
807.302	84
813.333	72
819.357	88
825.376	146
831.387	464
837.392	262
843.392	108
849.386	92
855.372	86
861.353	76
867.328	72
873.296	62
879.258	62
885.214	64
891.164	60
897.108	56
903.046	52
908.977	50
914.903	58
920.822	64
926.735	60
932.643	64
938.543	70
944.439	94
950.328	138
956.21	314
962.088	378
967.958	230
973.824	136
979.682	86
985.534	70
991.382	80
997.222	66
1003.06	66
1008.89	62
1014.71	66
1020.53	84
1026.34	80
1032.14	102
1037.94	102
1043.73	86
1049.52	72
1055.3	64
1061.08	64
1066.85	62
1072.61	60
1078.37	66
1084.12	64
1089.87	68
1095.61	70
1101.34	76
1107.07	152
1112.8	358
1118.51	166
1124.22	102
1129.93	90
1135.63	84
1141.32	82
1147.01	74
1152.69	74
1158.37	82
1164.04	88
1169.71	82
1175.37	94
1181.02	160
1186.67	238
1192.31	168
1197.95	168
1203.58	184
1209.2	120
1214.82	96
1220.44	92
1226.05	112
1231.65	138
1237.25	98
1242.84	82
1248.42	84
1254	82
1259.58	88
1265.15	94
1270.71	96
1276.27	108
1281.82	122
1287.37	146
1292.91	196
1298.45	370
1303.98	748
1309.5	526
1315.02	274
1320.53	188
1326.04	182
1331.54	180
1337.04	154
1342.53	150
1348.02	176
1353.5	162
1358.98	144
1364.45	162
1369.91	186
1375.37	338
1380.82	438
1386.27	270
1391.71	168
1397.15	134
1402.58	132
1408.01	128
1413.43	138
1418.85	162
1424.26	180
1429.66	186
1435.06	202
1440.46	218
1445.85	204
1451.23	166
1456.61	172
1461.98	158
1467.35	148
1472.71	154
1478.07	156
1483.42	142
1488.77	114
1494.11	114
1499.45	102
1504.78	116
1510.11	114
1515.43	108
1520.74	114
1526.05	114
1531.36	106
1536.66	106
1541.95	106
1547.24	112
1552.52	110
1557.8	120
1563.08	112
1568.35	124
1573.61	130
1578.87	140
1584.12	188
1589.37	244
1594.61	348
1599.85	462
1605.08	478
1610.31	358
1615.53	268
1620.75	164
1625.96	134
1631.17	108
1636.37	108
1641.57	90
1646.76	86
1651.95	90
1657.13	86
1662.31	88
1667.48	78
1672.65	80
1677.81	76
1682.97	72
1688.12	82
1693.27	86
1698.41	80
1702.26	74

File: ps-ppo-6jan25-0,0000-map2_Y04_X10.txt
204.377	404
211.048	352
217.712	352
224.369	498
231.019	932
237.661	926
244.297	624
250.924	414
257.546	294
264.16	208
270.766	186
277.365	192
283.958	254
290.543	374
297.121	450
303.693	354
310.256	272
316.813	246
323.362	236
329.905	272
336.441	264
342.969	212
349.491	224
356.006	216
362.513	188
369.014	200
375.508	194
381.994	152
388.473	136
394.947	124
401.412	138
407.871	166
414.323	212
420.768	172
427.206	122
433.637	102
440.062	78
446.479	70
452.89	82
459.293	86
465.691	98
472.081	154
478.463	220
484.84	300
491.21	166
497.573	108
503.929	108
510.279	164
516.621	184
522.957	168
529.287	246
535.609	404
541.925	416
548.234	216
554.536	220
560.832	384
567.12	1500
573.403	2050
579.679	506
585.948	342
592.211	276
598.466	222
604.715	114
610.958	96
617.194	92
623.424	124
629.647	134
635.864	156
642.074	128
648.276	98
654.473	86
660.664	78
666.847	70
673.025	54
679.195	56
685.36	54
691.517	58
697.669	64
703.814	66
709.953	86
716.085	98
722.21	70
728.33	82
734.443	78
740.549	90
746.65	144
752.743	124
758.831	96
764.912	62
770.986	66
777.055	76
783.117	82
789.173	68
795.222	70
801.265	68
807.302	80
813.333	72
819.357	84
825.376	126
831.387	500
837.392	250
843.392	102
849.386	98
855.372	88
861.353	86
867.328	64
873.296	70
879.258	62
885.214	68
891.164	56
897.108	60
903.046	60
908.977	60
914.903	62
920.822	52
926.735	64
932.643	62
938.543	72
944.439	92
950.328	152
956.21	326
962.088	392
967.958	240
973.824	142
979.682	88
985.534	74
991.382	72
997.222	68
1003.06	70
1008.89	66
1014.71	68
1020.53	78
1026.34	98
1032.14	88
1037.94	94
1043.73	86
1049.52	78
1055.3	76
1061.08	64
1066.85	68
1072.61	60
1078.37	64
1084.12	64
1089.87	74
1095.61	72
1101.34	74
1107.07	142
1112.8	356
1118.51	164
1124.22	112
1129.93	92
1135.63	86
1141.32	94
1147.01	76
1152.69	78
1158.37	86
1164.04	100
1169.71	86
1175.37	106
1181.02	148
1186.67	230
1192.31	166
1197.95	168
1203.58	184
1209.2	130
1214.82	92
1220.44	82
1226.05	116
1231.65	132
1237.25	100
1242.84	94
1248.42	86
1254	84
1259.58	90
1265.15	86
1270.71	94
1276.27	120
1281.82	138
1287.37	154
1292.91	186
1298.45	362
1303.98	782
1309.5	540
1315.02	284
1320.53	198
1326.04	180
1331.54	184
1337.04	146
1342.53	148
1348.02	166
1353.5	174
1358.98	144
1364.45	160
1369.91	174
1375.37	334
1380.82	436
1386.27	288
1391.71	160
1397.15	142
1402.58	134
1408.01	136
1413.43	144
1418.85	156
1424.26	194
1429.66	202
1435.06	210
1440.46	232
1445.85	194
1451.23	180
1456.61	172
1461.98	160
1467.35	146
1472.71	162
1478.07	146
1483.42	146
1488.77	130
1494.11	114
1499.45	120
1504.78	114
1510.11	118
1515.43	112
1520.74	120
1526.05	112
1531.36	112
1536.66	102
1541.95	114
1547.24	112
1552.52	116
1557.8	110
1563.08	116
1568.35	116
1573.61	128
1578.87	146
1584.12	158
1589.37	240
1594.61	364
1599.85	442
1605.08	458
1610.31	374
1615.53	268
1620.75	172
1625.96	132
1631.17	108
1636.37	102
1641.57	102
1646.76	84
1651.95	86
1657.13	84
1662.31	78
1667.48	80
1672.65	78
1677.81	76
1682.97	86
1688.12	82
1693.27	82
1698.41	78
1702.26	80

File: ps-ppo-6jan25-0,0000-map2_Y05_X01.txt
204.377	386
211.048	336
217.712	358
224.369	484
231.019	928
237.661	936
244.297	662
250.924	416
257.546	270
264.16	210
270.766	174
277.365	202
283.958	246
290.543	384
297.121	444
303.693	326
310.256	280
316.813	224
323.362	226
329.905	260
336.441	242
342.969	226
349.491	220
356.006	222
362.513	182
369.014	208
375.508	192
381.994	154
388.473	138
394.947	130
401.412	124
407.871	158
414.323	228
420.768	158
427.206	124
433.637	102
440.062	76
446.479	82
452.89	86
459.293	84
465.691	106
472.081	154
478.463	220
484.84	292
491.21	174
497.573	118
503.929	102
510.279	164
516.621	168
522.957	146
529.287	246
535.609	416
541.925	438
548.234	232
554.536	222
560.832	408
567.12	1430
573.403	2006
579.679	528
585.948	338
592.211	288
598.466	202
604.715	112
610.958	96
617.194	94
623.424	110
629.647	140
635.864	158
642.074	124
648.276	96
654.473	92
660.664	74
666.847	62
673.025	64
679.195	60
685.36	62
691.517	60
697.669	58
703.814	60
709.953	76
716.085	108
722.21	70
728.33	84
734.443	76
740.549	100
746.65	140
752.743	132
758.831	76
764.912	68
770.986	78
777.055	80
783.117	74
789.173	68
795.222	64
801.265	74
807.302	76
813.333	72
819.357	82
825.376	146
831.387	490
837.392	258
843.392	96
849.386	110
855.372	84
861.353	76
867.328	72
873.296	68
879.258	58
885.214	60
891.164	52
897.108	56
903.046	62
908.977	54
914.903	56
920.822	54
926.735	62
932.643	66
938.543	72
944.439	92
950.328	156
956.21	298
962.088	358
967.958	240
973.824	130
979.682	84
985.534	78
991.382	72
997.222	60
1003.06	66
1008.89	62
1014.71	64
1020.53	80
1026.34	88
1032.14	102
1037.94	100
1043.73	78
1049.52	66
1055.3	70
1061.08	62
1066.85	54
1072.61	68
1078.37	64
1084.12	68
1089.87	64
1095.61	62
1101.34	76
1107.07	146
1112.8	352
1118.51	156
1124.22	100
1129.93	90
1135.63	80
1141.32	90
1147.01	76
1152.69	74
1158.37	84
1164.04	100
1169.71	88
1175.37	94
1181.02	150
1186.67	248
1192.31	164
1197.95	156
1203.58	184
1209.2	130
1214.82	94
1220.44	92
1226.05	108
1231.65	134
1237.25	94
1242.84	88
1248.42	88
1254	96
1259.58	90
1265.15	100
1270.71	106
1276.27	110
1281.82	136
1287.37	152
1292.91	202
1298.45	336
1303.98	764
1309.5	498
1315.02	276
1320.53	206
1326.04	182
1331.54	174
1337.04	144
1342.53	154
1348.02	172
1353.5	152
1358.98	140
1364.45	146
1369.91	174
1375.37	348
1380.82	402
1386.27	290
1391.71	156
1397.15	142
1402.58	134
1408.01	128
1413.43	148
1418.85	174
1424.26	188
1429.66	182
1435.06	206
1440.46	236
1445.85	210
1451.23	178
1456.61	168
1461.98	154
1467.35	150
1472.71	158
1478.07	150
1483.42	138
1488.77	116
1494.11	124
1499.45	118
1504.78	114
1510.11	116
1515.43	114
1520.74	108
1526.05	102
1531.36	110
1536.66	100
1541.95	102
1547.24	100
1552.52	116
1557.8	110
1563.08	114
1568.35	114
1573.61	132
1578.87	146
1584.12	178
1589.37	230
1594.61	340
1599.85	458
1605.08	462
1610.31	362
1615.53	252
1620.75	172
1625.96	124
1631.17	104
1636.37	98
1641.57	94
1646.76	88
1651.95	92
1657.13	80
1662.31	80
1667.48	82
1672.65	84
1677.81	76
1682.97	74
1688.12	74
1693.27	74
1698.41	74
1702.26	78